timestamp,date_time,is_battery,current,voltage,battery_temperature,soc,is_heart_rate,hr,hr_conf,is_blood_oxygen,spo2,spo2_conf,is_ppg,green,red,infra_red,is_pressure,pressure,pressure_in_pa,is_skin_temperature,skin_temperature,is_ntc_temperature,ntc_temperature,is_skin_contact,skin_contact,is_accelerometer,acc_x,acc_y,acc_z,is_gyroscope,gyr_x,gyr_y,gyr_z,is_accelerometer_bosch,bosch_acc_x,bosch_acc_y,bosch_acc_z,is_gyroscope_bosch,bosch_gyr_x,bosch_gyr_y,bosch_gyr_z,is_sequence_number,seqno
1769081544867,1769081544867,0,0,0,0,0,0,0,0,0,0,0,0,0,0,0,0,0,0,0,0,0,0,0,0,0,0,0,0,0,0,0,0,1,-563,-590,4015,0,0,0,0,0,0
1769081544886,1769081544886,0,0,0,0,0,0,0,0,0,0,0,0,0,0,0,0,0,0,0,0,0,0,0,0,0,0,0,0,0,0,0,0,0,0,0,0,1,-1,-3,-6,0,0
1769081544906,1769081544906,0,0,0,0,0,0,0,0,0,0,0,0,0,0,0,0,0,0,0,0,0,0,0,0,0,0,0,0,0,0,0,0,1,-560,-629,3997,0,0,0,0,0,0
1769081544926,1769081544926,0,0,0,0,0,0,0,0,0,0,0,0,0,0,0,0,0,0,0,0,0,0,0,0,0,0,0,0,0,0,0,0,0,0,0,0,1,-1,-10,-1,0,0
1769081544946,1769081544946,0,0,0,0,0,0,0,0,0,0,0,0,0,0,0,0,0,0,0,0,0,0,0,0,0,0,0,0,0,0,0,0,1,-552,-571,4024,0,0,0,0,0,0
1769081544966,1769081544966,0,0,0,0,0,0,0,0,0,0,0,0,0,0,0,0,0,0,0,0,0,0,0,0,0,0,0,0,0,0,0,0,0,0,0,0,1,21,-14,2,0,0
1769081544969,1769081544969,0,0,0,0,0,0,0,0,0,0,0,0,0,0,0,0,0,0,0,0,0,0,0,0,0,0,0,0,0,0,0,0,0,0,0,0,0,0,0,0,1,19942
1769081544986,1769081544986,0,0,0,0,0,0,0,0,0,0,0,0,0,0,0,0,0,0,0,0,0,0,0,0,0,0,0,0,0,0,0,0,1,-543,-597,4014,0,0,0,0,0,0
1769081544992,1769081544992,0,0,0,0,0,0,0,0,0,0,0,0,0,0,0,0,0,0,0,0,0,0,0,0,0,0,0,0,0,0,0,0,0,0,0,0,0,0,0,0,1,19943
1769081545006,1769081545006,0,0,0,0,0,0,0,0,0,0,0,0,0,0,0,0,0,0,0,0,0,0,0,0,0,0,0,0,0,0,0,0,0,0,0,0,1,5,-9,2,0,0
1769081545010,1769081545010,0,0,0,0,0,0,0,0,0,0,0,0,0,0,0,0,0,0,0,0,0,0,0,0,0,0,0,0,0,0,0,0,0,0,0,0,0,0,0,0,1,19944
1769081545024,1769081545024,0,0,0,0,0,1,71,25,1,97,99,1,351063,12918,18862,0,0,0,0,0,0,0,1,3,1,-186,125,-973,0,0,0,0,0,0,0,0,0,0,0,0,0,0
1769081545026,1769081545026,0,0,0,0,0,0,0,0,0,0,0,0,0,0,0,0,0,0,0,0,0,0,0,0,0,0,0,0,0,0,0,0,1,-556,-587,4014,0,0,0,0,0,0
1769081545031,1769081545031,0,0,0,0,0,0,0,0,0,0,0,0,0,0,0,0,0,0,0,0,0,0,0,0,0,0,0,0,0,0,0,0,0,0,0,0,0,0,0,0,1,19945
1769081545046,1769081545046,0,0,0,0,0,0,0,0,0,0,0,0,0,0,0,0,0,0,0,0,0,0,0,0,0,0,0,0,0,0,0,0,0,0,0,0,1,8,3,8,0,0
1769081545062,1769081545062,0,0,0,0,0,0,0,0,0,0,0,0,0,0,0,0,0,0,0,0,0,0,0,0,0,0,0,0,0,0,0,0,0,0,0,0,0,0,0,0,1,19946
1769081545064,1769081545064,0,0,0,0,0,1,71,25,1,97,99,1,351055,12923,18862,0,0,0,0,0,0,0,0,0,1,-181,124,-969,0,0,0,0,0,0,0,0,0,0,0,0,0,0
1769081545066,1769081545066,0,0,0,0,0,0,0,0,0,0,0,0,0,0,0,0,0,0,0,0,0,0,0,0,0,0,0,0,0,0,0,0,1,-549,-580,4017,0,0,0,0,0,0
1769081545074,1769081545074,0,0,0,0,0,0,0,0,0,0,0,0,0,0,0,0,0,0,0,0,0,0,0,0,0,0,0,0,0,0,0,0,0,0,0,0,0,0,0,0,1,19947
1769081545085,1769081545085,0,0,0,0,0,0,0,0,0,0,0,0,0,0,0,0,0,0,0,0,0,0,0,0,0,0,0,0,0,0,0,0,0,0,0,0,1,-2,0,2,0,0
1769081545097,1769081545097,0,0,0,0,0,0,0,0,0,0,0,0,0,0,0,0,0,0,0,0,0,0,0,0,0,0,0,0,0,0,0,0,0,0,0,0,0,0,0,0,1,19948
1769081545104,1769081545104,0,0,0,0,0,1,71,25,1,97,99,1,351052,12925,18866,0,0,0,0,0,0,0,0,0,1,-188,129,-973,0,0,0,0,0,0,0,0,0,0,0,0,0,0
1769081545105,1769081545105,0,0,0,0,0,0,0,0,0,0,0,0,0,0,0,0,0,0,0,0,0,0,0,0,0,0,0,0,0,0,0,0,1,-560,-602,4012,0,0,0,0,0,0
1769081545122,1769081545122,0,0,0,0,0,0,0,0,0,0,0,0,0,0,0,0,0,0,0,0,0,0,0,0,0,0,0,0,0,0,0,0,0,0,0,0,0,0,0,0,1,19949
1769081545125,1769081545125,0,0,0,0,0,0,0,0,0,0,0,0,0,0,0,0,0,0,0,0,0,0,0,0,0,0,0,0,0,0,0,0,0,0,0,0,1,-7,0,-2,0,0
1769081545143,1769081545143,0,0,0,0,0,0,0,0,0,0,0,0,0,0,0,0,0,0,0,0,0,0,0,0,0,0,0,0,0,0,0,0,0,0,0,0,0,0,0,0,1,19950
1769081545144,1769081545144,0,0,0,0,0,1,71,50,1,97,99,1,351075,12929,18869,0,0,0,0,0,0,0,0,0,1,-181,126,-973,0,0,0,0,0,0,0,0,0,0,0,0,0,0
1769081545145,1769081545145,0,0,0,0,0,0,0,0,0,0,0,0,0,0,0,0,0,0,0,0,0,0,0,0,0,0,0,0,0,0,0,0,1,-554,-586,4010,0,0,0,0,0,0
1769081545158,1769081545158,0,0,0,0,0,0,0,0,0,0,0,0,0,0,0,0,0,0,0,0,0,0,0,0,0,0,0,0,0,0,0,0,0,0,0,0,0,0,0,0,1,19951
1769081545165,1769081545165,0,0,0,0,0,0,0,0,0,0,0,0,0,0,0,0,0,0,0,0,0,0,0,0,0,0,0,0,0,0,0,0,0,0,0,0,1,-4,3,-6,0,0
1769081545178,1769081545178,0,0,0,0,0,0,0,0,0,0,0,0,0,0,0,1,999,99904,0,0,0,0,0,0,0,0,0,0,0,0,0,0,0,0,0,0,0,0,0,0,0,0
1769081545179,1769081545179,0,0,0,0,0,0,0,0,0,0,0,0,0,0,0,0,0,0,0,0,0,0,0,0,0,0,0,0,0,0,0,0,0,0,0,0,0,0,0,0,1,19952
1769081545184,1769081545184,0,0,0,0,0,1,71,50,1,97,99,1,351106,12934,18874,0,0,0,0,0,0,0,0,0,1,-176,128,-973,0,0,0,0,0,0,0,0,0,0,0,0,0,0
1769081545185,1769081545185,0,0,0,0,0,0,0,0,0,0,0,0,0,0,0,0,0,0,0,0,0,0,0,0,0,0,0,0,0,0,0,0,1,-542,-610,4014,0,0,0,0,0,0
1769081545205,1769081545205,0,0,0,0,0,0,0,0,0,0,0,0,0,0,0,0,0,0,0,0,0,0,0,0,0,0,0,0,0,0,0,0,0,0,0,0,1,-17,-1,-4,0,0
1769081545206,1769081545206,0,0,0,0,0,0,0,0,0,0,0,0,0,0,0,0,0,0,0,0,0,0,0,0,0,0,0,0,0,0,0,0,0,0,0,0,0,0,0,0,1,19953
1769081545224,1769081545224,0,0,0,0,0,1,71,50,1,97,99,1,351132,12937,18874,0,0,0,0,0,0,0,0,0,1,-183,129,-973,0,0,0,0,0,0,0,0,0,0,0,0,0,0
1769081545225,1769081545225,0,0,0,0,0,0,0,0,0,0,0,0,0,0,0,0,0,0,0,0,0,0,0,0,0,0,0,0,0,0,0,0,1,-546,-596,4011,0,0,0,0,0,0
1769081545232,1769081545232,0,0,0,0,0,0,0,0,0,0,0,0,0,0,0,0,0,0,0,0,0,0,0,0,0,0,0,0,0,0,0,0,0,0,0,0,0,0,0,0,1,19954
1769081545245,1769081545245,0,0,0,0,0,0,0,0,0,0,0,0,0,0,0,0,0,0,0,0,0,0,0,0,0,0,0,0,0,0,0,0,0,0,0,0,1,0,-1,5,0,0
1769081545246,1769081545246,0,0,0,0,0,0,0,0,0,0,0,0,0,0,0,0,0,0,0,0,0,0,0,0,0,0,0,0,0,0,0,0,0,0,0,0,0,0,0,0,1,19955
1769081545264,1769081545264,0,0,0,0,0,1,71,50,1,97,99,1,351194,12937,18877,0,0,0,0,0,0,0,0,0,1,-191,128,-973,0,0,0,0,1,-561,-592,4015,0,0,0,0,0,0
1769081545270,1769081545270,0,0,0,0,0,0,0,0,0,0,0,0,0,0,0,0,0,0,0,0,0,0,0,0,0,0,0,0,0,0,0,0,0,0,0,0,0,0,0,0,1,19956
1769081545284,1769081545284,0,0,0,0,0,0,0,0,0,0,0,0,0,0,0,0,0,0,0,0,0,0,0,0,0,0,0,0,0,0,0,0,0,0,0,0,1,-5,0,0,0,0
1769081545287,1769081545287,0,0,0,0,0,0,0,0,0,0,0,0,0,0,0,0,0,0,0,0,0,0,0,0,0,0,0,0,0,0,0,0,0,0,0,0,0,0,0,0,1,19957
1769081545304,1769081545304,0,0,0,0,0,1,71,50,1,97,99,1,351230,12936,18877,0,0,0,0,0,0,0,0,0,1,-185,130,-974,0,0,0,0,1,-561,-619,4001,0,0,0,0,0,0
1769081545306,1769081545306,0,0,0,0,0,0,0,0,0,0,0,0,0,0,0,0,0,0,0,0,0,0,0,0,0,0,0,0,0,0,0,0,0,0,0,0,0,0,0,0,1,19958
1769081545324,1769081545324,0,0,0,0,0,0,0,0,0,0,0,0,0,0,0,0,0,0,0,0,0,0,0,0,0,0,0,0,0,0,0,0,0,0,0,0,1,-6,0,-5,0,0
1769081545329,1769081545329,0,0,0,0,0,0,0,0,0,0,0,0,0,0,0,0,0,0,0,0,0,0,0,0,0,0,0,0,0,0,0,0,0,0,0,0,0,0,0,0,1,19959
1769081545344,1769081545344,0,0,0,0,0,1,71,50,1,97,99,1,351288,12935,18879,0,0,0,0,0,0,0,0,0,1,-181,126,-970,0,0,0,0,1,-551,-589,4019,0,0,0,0,0,0
1769081545353,1769081545353,0,0,0,0,0,0,0,0,0,0,0,0,0,0,0,0,0,0,0,0,0,0,0,0,0,0,0,0,0,0,0,0,0,0,0,0,0,0,0,0,1,19960
1769081545364,1769081545364,0,0,0,0,0,0,0,0,0,0,0,0,0,0,0,0,0,0,0,0,0,0,0,0,0,0,0,0,0,0,0,0,0,0,0,0,1,15,-8,0,0,0
1769081545382,1769081545382,0,0,0,0,0,0,0,0,0,0,0,0,0,0,0,0,0,0,0,0,0,0,0,0,0,0,0,0,0,0,0,0,0,0,0,0,0,0,0,0,1,19961
1769081545384,1769081545384,0,0,0,0,0,1,71,50,1,97,99,1,351354,12935,18875,0,0,0,0,0,0,0,0,0,1,-172,123,-976,0,0,0,0,1,-537,-606,4008,0,0,0,0,0,0
1769081545397,1769081545397,0,0,0,0,0,0,0,0,0,0,0,0,0,0,0,0,0,0,0,0,0,0,0,0,0,0,0,0,0,0,0,0,0,0,0,0,0,0,0,0,1,19962
1769081545404,1769081545404,0,0,0,0,0,0,0,0,0,0,0,0,0,0,0,0,0,0,0,0,0,0,0,0,0,0,0,0,0,0,0,0,0,0,0,0,1,10,-11,2,0,0
1769081545412,1769081545412,0,0,0,0,0,0,0,0,0,0,0,0,0,0,0,0,0,0,0,0,0,0,0,0,0,0,0,0,0,0,0,0,0,0,0,0,0,0,0,0,1,19963
1769081545424,1769081545424,0,0,0,0,0,1,71,50,1,97,99,1,351411,12937,18877,0,0,0,0,0,0,0,0,0,1,-176,126,-975,0,0,0,0,1,-555,-581,4019,0,0,0,0,0,0
1769081545434,1769081545434,0,0,0,0,0,0,0,0,0,0,0,0,0,0,0,0,0,0,0,0,0,0,0,0,0,0,0,0,0,0,0,0,0,0,0,0,0,0,0,0,1,19964
1769081545444,1769081545444,0,0,0,0,0,0,0,0,0,0,0,0,0,0,0,0,0,0,0,0,0,0,0,0,0,0,0,0,0,0,0,0,0,0,0,0,1,17,-4,3,0,0
1769081545463,1769081545463,0,0,0,0,0,0,0,0,0,0,0,0,0,0,0,0,0,0,0,0,0,0,0,0,0,0,0,0,0,0,0,0,1,-543,-583,4021,0,0,0,0,0,0
1769081545464,1769081545464,0,0,0,0,0,1,71,50,1,97,99,1,351497,12941,18882,0,0,0,0,0,0,0,0,0,1,-177,130,-971,0,0,0,0,0,0,0,0,0,0,0,0,0,0
1769081545472,1769081545472,0,0,0,0,0,0,0,0,0,0,0,0,0,0,0,0,0,0,0,0,0,0,0,0,0,0,0,0,0,0,0,0,0,0,0,0,0,0,0,0,1,19965
1769081545479,1769081545479,0,0,0,0,0,0,0,0,0,0,0,0,0,0,0,0,0,0,0,0,0,0,0,0,0,0,0,0,0,0,0,0,0,0,0,0,0,0,0,0,1,19966
1769081545483,1769081545483,0,0,0,0,0,0,0,0,0,0,0,0,0,0,0,0,0,0,0,0,0,0,0,0,0,0,0,0,0,0,0,0,0,0,0,0,1,-4,-3,-4,0,0
1769081545502,1769081545502,0,0,0,0,0,0,0,0,0,0,0,0,0,0,0,0,0,0,0,0,0,0,0,0,0,0,0,0,0,0,0,0,0,0,0,0,0,0,0,0,1,19967
1769081545503,1769081545503,0,0,0,0,0,0,0,0,0,0,0,0,0,0,0,0,0,0,0,0,0,0,0,0,0,0,0,0,0,0,0,0,1,-541,-613,4010,0,0,0,0,0,0
1769081545504,1769081545504,0,0,0,0,0,1,71,50,1,97,99,1,351585,12945,18882,0,0,0,0,0,0,0,0,0,1,-178,125,-976,0,0,0,0,0,0,0,0,0,0,0,0,0,0
1769081545516,1769081545516,0,0,0,0,0,0,0,0,0,0,0,0,0,0,0,0,0,0,0,0,0,0,0,0,0,0,0,0,0,0,0,0,0,0,0,0,0,0,0,0,1,19968
1769081545523,1769081545523,0,0,0,0,0,0,0,0,0,0,0,0,0,0,0,0,0,0,0,0,0,0,0,0,0,0,0,0,0,0,0,0,0,0,0,0,1,-11,3,-7,0,0
1769081545539,1769081545539,0,0,0,0,0,0,0,0,0,0,0,0,0,0,0,0,0,0,0,0,0,0,0,0,0,0,0,0,0,0,0,0,0,0,0,0,0,0,0,0,1,19969
1769081545543,1769081545543,0,0,0,0,0,0,0,0,0,0,0,0,0,0,0,0,0,0,0,0,0,0,0,0,0,0,0,0,0,0,0,0,1,-539,-584,4016,0,0,0,0,0,0
1769081545544,1769081545544,0,0,0,0,0,1,71,50,1,97,99,1,351677,12946,18885,0,0,0,0,0,0,0,0,0,1,-181,128,-975,0,0,0,0,0,0,0,0,0,0,0,0,0,0
1769081545553,1769081545553,0,0,0,0,0,0,0,0,0,0,0,0,0,0,0,0,0,0,0,0,0,0,0,0,0,0,0,0,0,0,0,0,0,0,0,0,0,0,0,0,1,19970
1769081545563,1769081545563,0,0,0,0,0,0,0,0,0,0,0,0,0,0,0,0,0,0,0,0,0,0,0,0,0,0,0,0,0,0,0,0,0,0,0,0,1,-1,8,0,0,0
1769081545583,1769081545583,0,0,0,0,0,0,0,0,0,0,0,0,0,0,0,0,0,0,0,0,0,0,0,0,0,0,0,0,0,0,0,0,1,-551,-606,4009,0,0,0,0,0,0
1769081545584,1769081545584,0,0,0,0,0,1,71,50,1,97,99,1,351792,12947,18886,0,0,0,0,0,0,0,0,0,1,-178,128,-977,0,0,0,0,0,0,0,0,0,0,0,0,0,0
1769081545603,1769081545603,0,0,0,0,0,0,0,0,0,0,0,0,0,0,0,0,0,0,0,0,0,0,0,0,0,0,0,0,0,0,0,0,0,0,0,0,1,-3,14,0,0,0
1769081545623,1769081545623,0,0,0,0,0,0,0,0,0,0,0,0,0,0,0,0,0,0,0,0,0,0,0,0,0,0,0,0,0,0,0,0,1,-566,-598,4010,0,0,0,0,0,0
1769081545624,1769081545624,0,0,0,0,0,1,71,50,1,97,99,1,351896,12952,18892,0,0,0,0,0,0,0,0,0,1,-172,123,-974,0,0,0,0,0,0,0,0,0,0,0,0,0,0
1769081545642,1769081545642,0,0,0,0,0,0,0,0,0,0,0,0,0,0,0,0,0,0,0,0,0,0,0,0,0,0,0,0,0,0,0,0,0,0,0,0,1,0,10,-2,0,0
1769081545662,1769081545662,0,0,0,0,0,0,0,0,0,0,0,0,0,0,0,0,0,0,0,0,0,0,0,0,0,0,0,0,0,0,0,0,1,-548,-593,4015,0,0,0,0,0,0
1769081545664,1769081545664,0,0,0,0,0,1,71,75,1,97,99,1,351998,12954,18901,0,0,0,0,0,0,0,0,0,1,-185,128,-976,0,0,0,0,0,0,0,0,0,0,0,0,0,0
1769081545682,1769081545682,0,0,0,0,0,0,0,0,0,0,0,0,0,0,0,0,0,0,0,0,0,0,0,0,0,0,0,0,0,0,0,0,0,0,0,0,1,4,-2,-1,0,0
1769081545702,1769081545702,0,0,0,0,0,0,0,0,0,0,0,0,0,0,0,0,0,0,0,0,0,0,0,0,0,0,0,0,0,0,0,0,1,-545,-588,4016,0,0,0,0,0,0
1769081545704,1769081545704,0,0,0,0,0,1,71,75,1,97,99,1,352124,12955,18904,0,0,0,0,0,0,0,0,0,1,-187,128,-978,0,0,0,0,0,0,0,0,0,0,0,0,0,0
1769081545722,1769081545722,0,0,0,0,0,0,0,0,0,0,0,0,0,0,0,0,0,0,0,0,0,0,0,0,0,0,0,0,0,0,0,0,0,0,0,0,1,7,0,-1,0,0
1769081545742,1769081545742,0,0,0,0,0,0,0,0,0,0,0,0,0,0,0,0,0,0,0,0,0,0,0,0,0,0,0,0,0,0,0,0,1,-550,-609,4010,0,0,0,0,0,0
1769081545744,1769081545744,0,0,0,0,0,1,71,75,1,97,99,1,352243,12953,18895,0,0,0,0,0,0,0,0,0,1,-174,126,-973,0,0,0,0,0,0,0,0,0,0,0,0,0,0
1769081545762,1769081545762,0,0,0,0,0,0,0,0,0,0,0,0,0,0,0,0,0,0,0,0,0,0,0,0,0,0,0,0,0,0,0,0,0,0,0,0,1,5,1,3,0,0
1769081545782,1769081545782,0,0,0,0,0,0,0,0,0,0,0,0,0,0,0,0,0,0,0,0,0,0,0,0,0,0,0,0,0,0,0,0,1,-560,-594,4014,0,0,0,0,0,0
1769081545784,1769081545784,0,0,0,0,0,1,71,75,1,97,99,1,352347,12953,18896,0,0,0,0,0,0,0,0,0,1,-178,129,-971,0,0,0,0,0,0,0,0,0,0,0,0,0,0
1769081545802,1769081545802,0,0,0,0,0,0,0,0,0,0,0,0,0,0,0,0,0,0,0,0,0,0,0,0,0,0,0,0,0,0,0,0,0,0,0,0,1,23,0,9,0,0
1769081545818,1769081545818,0,0,0,0,0,0,0,0,0,0,0,0,0,0,0,1,999,99901,0,0,0,0,0,0,0,0,0,0,0,0,0,0,0,0,0,0,0,0,0,0,0,0
1769081545821,1769081545821,0,0,0,0,0,0,0,0,0,0,0,0,0,0,0,0,0,0,0,0,0,0,0,0,0,0,0,0,0,0,0,0,1,-550,-584,4019,0,0,0,0,0,0
1769081545824,1769081545824,0,0,0,0,0,1,71,75,1,97,99,1,352465,12955,18895,0,0,0,0,0,0,0,0,0,1,-189,123,-975,0,0,0,0,0,0,0,0,0,0,0,0,0,0
1769081545841,1769081545841,0,0,0,0,0,0,0,0,0,0,0,0,0,0,0,0,0,0,0,0,0,0,0,0,0,0,0,0,0,0,0,0,0,0,0,0,1,26,1,5,0,0
1769081545861,1769081545861,0,0,0,0,0,0,0,0,0,0,0,0,0,0,0,0,0,0,0,0,0,0,0,0,0,0,0,0,0,0,0,0,1,-550,-571,4020,0,0,0,0,0,0
1769081545864,1769081545864,0,0,0,0,0,1,71,75,1,97,99,1,352551,12954,18898,0,0,0,0,0,0,0,0,0,1,-168,122,-974,0,0,0,0,0,0,0,0,0,0,0,0,0,0
1769081545881,1769081545881,0,0,0,0,0,0,0,0,0,0,0,0,0,0,0,0,0,0,0,0,0,0,0,0,0,0,0,0,0,0,0,0,0,0,0,0,1,10,4,0,0,0
1769081545901,1769081545901,0,0,0,0,0,0,0,0,0,0,0,0,0,0,0,0,0,0,0,0,0,0,0,0,0,0,0,0,0,0,0,0,1,-554,-586,4012,0,0,0,0,0,0
1769081545904,1769081545904,0,0,0,0,0,1,71,75,1,97,99,1,352571,12951,18890,0,0,0,0,0,0,0,0,0,1,-180,126,-973,0,0,0,0,0,0,0,0,0,0,0,0,0,0
1769081545921,1769081545921,0,0,0,0,0,0,0,0,0,0,0,0,0,0,0,0,0,0,0,0,0,0,0,0,0,0,0,0,0,0,0,0,0,0,0,0,1,-4,5,-1,0,0
1769081545941,1769081545941,0,0,0,0,0,0,0,0,0,0,0,0,0,0,0,0,0,0,0,0,0,0,0,0,0,0,0,0,0,0,0,0,1,-559,-581,4015,0,0,0,0,0,0
1769081545944,1769081545944,0,0,0,0,0,1,71,75,1,97,99,1,352549,12950,18890,0,0,0,0,0,0,0,0,0,1,-180,127,-976,0,0,0,0,0,0,0,0,0,0,0,0,0,0
1769081545961,1769081545961,0,0,0,0,0,0,0,0,0,0,0,0,0,0,0,0,0,0,0,0,0,0,0,0,0,0,0,0,0,0,0,0,0,0,0,0,1,-6,2,0,0,0
1769081545975,1769081545975,0,0,0,0,0,0,0,0,0,0,0,0,0,0,0,0,0,0,0,0,0,0,0,0,0,0,0,0,0,0,0,0,0,0,0,0,0,0,0,0,1,19971
1769081545981,1769081545981,0,0,0,0,0,0,0,0,0,0,0,0,0,0,0,0,0,0,0,0,0,0,0,0,0,0,0,0,0,0,0,0,1,-557,-588,4015,0,0,0,0,0,0
1769081545984,1769081545984,0,0,0,0,0,1,71,75,1,97,99,1,352500,12958,18890,0,0,0,0,0,0,0,0,0,1,-176,133,-971,0,0,0,0,0,0,0,0,0,0,0,0,0,0
1769081545998,1769081545998,0,0,0,0,0,0,0,0,0,0,0,0,0,0,0,0,0,0,0,0,0,0,0,0,0,0,0,0,0,0,0,0,0,0,0,0,0,0,0,0,1,19972
1769081546000,1769081546000,0,0,0,0,0,0,0,0,0,0,0,0,0,0,0,0,0,0,0,0,0,0,0,0,0,0,0,0,0,0,0,0,0,0,0,0,1,-4,2,0,0,0
1769081546020,1769081546020,0,0,0,0,0,0,0,0,0,0,0,0,0,0,0,0,0,0,0,0,0,0,0,0,0,0,0,0,0,0,0,0,1,-554,-589,4014,0,0,0,0,1,19973
1769081546024,1769081546024,0,0,0,0,0,1,71,75,1,97,99,1,352439,12955,18889,0,0,0,0,0,0,0,1,3,1,-184,133,-974,0,0,0,0,0,0,0,0,0,0,0,0,0,0
1769081546040,1769081546040,0,0,0,0,0,0,0,0,0,0,0,0,0,0,0,0,0,0,0,0,0,0,0,0,0,0,0,0,0,0,0,0,0,0,0,0,1,-5,3,0,0,0
1769081546046,1769081546046,0,0,0,0,0,0,0,0,0,0,0,0,0,0,0,0,0,0,1,30.457582473754883,1,26.994531631469727,0,0,0,0,0,0,0,0,0,0,0,0,0,0,0,0,0,0,0,0
1769081546048,1769081546048,1,-13,3835,300,58.400000000000006,0,0,0,0,0,0,0,0,0,0,0,0,0,0,0,0,0,0,0,0,0,0,0,0,0,0,0,0,0,0,0,0,0,0,0,0,0
1769081546049,1769081546049,0,0,0,0,0,0,0,0,0,0,0,0,0,0,0,0,0,0,0,0,0,0,0,0,0,0,0,0,0,0,0,0,0,0,0,0,0,0,0,0,1,19974
1769081546060,1769081546060,0,0,0,0,0,0,0,0,0,0,0,0,0,0,0,0,0,0,0,0,0,0,0,0,0,0,0,0,0,0,0,0,1,-552,-595,4014,0,0,0,0,0,0
1769081546064,1769081546064,0,0,0,0,0,1,71,75,1,97,99,1,352383,12956,18889,0,0,0,0,0,0,0,0,0,1,-169,126,-974,0,0,0,0,0,0,0,0,0,0,0,0,0,0
1769081546066,1769081546066,0,0,0,0,0,0,0,0,0,0,0,0,0,0,0,0,0,0,0,0,0,0,0,0,0,0,0,0,0,0,0,0,0,0,0,0,0,0,0,0,1,19975
1769081546080,1769081546080,0,0,0,0,0,0,0,0,0,0,0,0,0,0,0,0,0,0,0,0,0,0,0,0,0,0,0,0,0,0,0,0,0,0,0,0,1,-7,1,0,0,0
1769081546086,1769081546086,0,0,0,0,0,0,0,0,0,0,0,0,0,0,0,0,0,0,0,0,0,0,0,0,0,0,0,0,0,0,0,0,0,0,0,0,0,0,0,0,1,19976
1769081546100,1769081546100,0,0,0,0,0,0,0,0,0,0,0,0,0,0,0,0,0,0,0,0,0,0,0,0,0,0,0,0,0,0,0,0,1,-556,-576,4020,0,0,0,0,0,0
1769081546102,1769081546102,0,0,0,0,0,0,0,0,0,0,0,0,0,0,0,0,0,0,0,0,0,0,0,0,0,0,0,0,0,0,0,0,0,0,0,0,0,0,0,0,1,19977
1769081546104,1769081546104,0,0,0,0,0,1,71,75,1,97,99,1,352336,12944,18887,0,0,0,0,0,0,0,0,0,1,-171,125,-975,0,0,0,0,0,0,0,0,0,0,0,0,0,0
1769081546120,1769081546120,0,0,0,0,0,0,0,0,0,0,0,0,0,0,0,0,0,0,0,0,0,0,0,0,0,0,0,0,0,0,0,0,0,0,0,0,1,0,4,-1,0,0
1769081546124,1769081546124,0,0,0,0,0,0,0,0,0,0,0,0,0,0,0,0,0,0,0,0,0,0,0,0,0,0,0,0,0,0,0,0,0,0,0,0,0,0,0,0,1,19978
1769081546140,1769081546140,0,0,0,0,0,0,0,0,0,0,0,0,0,0,0,0,0,0,0,0,0,0,0,0,0,0,0,0,0,0,0,0,1,-563,-599,4005,0,0,0,0,0,0
1769081546144,1769081546144,0,0,0,0,0,1,71,75,1,97,99,1,352292,12942,18887,0,0,0,0,0,0,0,0,0,1,-180,128,-976,0,0,0,0,0,0,0,0,0,0,0,0,0,0
1769081546146,1769081546146,0,0,0,0,0,0,0,0,0,0,0,0,0,0,0,0,0,0,0,0,0,0,0,0,0,0,0,0,0,0,0,0,0,0,0,0,0,0,0,0,1,19979
1769081546160,1769081546160,0,0,0,0,0,0,0,0,0,0,0,0,0,0,0,0,0,0,0,0,0,0,0,0,0,0,0,0,0,0,0,0,0,0,0,0,1,-4,4,0,0,0
1769081546177,1769081546177,0,0,0,0,0,0,0,0,0,0,0,0,0,0,0,0,0,0,0,0,0,0,0,0,0,0,0,0,0,0,0,0,0,0,0,0,0,0,0,0,1,19980
1769081546179,1769081546179,0,0,0,0,0,0,0,0,0,0,0,0,0,0,0,0,0,0,0,0,0,0,0,0,0,0,0,0,0,0,0,0,1,-557,-597,4017,0,0,0,0,0,0
1769081546184,1769081546184,0,0,0,0,0,1,71,75,1,97,99,1,352282,12946,18885,0,0,0,0,0,0,0,0,0,1,-164,124,-976,0,0,0,0,0,0,0,0,0,0,0,0,0,0
1769081546195,1769081546195,0,0,0,0,0,0,0,0,0,0,0,0,0,0,0,0,0,0,0,0,0,0,0,0,0,0,0,0,0,0,0,0,0,0,0,0,0,0,0,0,1,19981
1769081546199,1769081546199,0,0,0,0,0,0,0,0,0,0,0,0,0,0,0,0,0,0,0,0,0,0,0,0,0,0,0,0,0,0,0,0,0,0,0,0,1,2,-3,2,0,0
1769081546215,1769081546215,0,0,0,0,0,0,0,0,0,0,0,0,0,0,0,0,0,0,0,0,0,0,0,0,0,0,0,0,0,0,0,0,0,0,0,0,0,0,0,0,1,19982
1769081546219,1769081546219,0,0,0,0,0,0,0,0,0,0,0,0,0,0,0,0,0,0,0,0,0,0,0,0,0,0,0,0,0,0,0,0,1,-554,-577,4014,0,0,0,0,0,0
1769081546224,1769081546224,0,0,0,0,0,1,71,75,1,97,99,1,352247,12954,18885,0,0,0,0,0,0,0,0,0,1,-188,125,-979,0,0,0,0,0,0,0,0,0,0,0,0,0,0
1769081546229,1769081546229,0,0,0,0,0,0,0,0,0,0,0,0,0,0,0,0,0,0,0,0,0,0,0,0,0,0,0,0,0,0,0,0,0,0,0,0,0,0,0,0,1,19983
1769081546239,1769081546239,0,0,0,0,0,0,0,0,0,0,0,0,0,0,0,0,0,0,0,0,0,0,0,0,0,0,0,0,0,0,0,0,0,0,0,0,1,7,-4,3,0,0
1769081546251,1769081546251,0,0,0,0,0,0,0,0,0,0,0,0,0,0,0,0,0,0,0,0,0,0,0,0,0,0,0,0,0,0,0,0,0,0,0,0,0,0,0,0,1,19984
1769081546259,1769081546259,0,0,0,0,0,0,0,0,0,0,0,0,0,0,0,0,0,0,0,0,0,0,0,0,0,0,0,0,0,0,0,0,1,-558,-581,4015,0,0,0,0,0,0
1769081546264,1769081546264,0,0,0,0,0,1,71,75,1,97,99,1,352246,12953,18886,0,0,0,0,0,0,0,0,0,1,-179,134,-971,0,0,0,0,0,0,0,0,0,0,0,0,0,0
1769081546275,1769081546275,0,0,0,0,0,0,0,0,0,0,0,0,0,0,0,0,0,0,0,0,0,0,0,0,0,0,0,0,0,0,0,0,0,0,0,0,0,0,0,0,1,19985
1769081546279,1769081546279,0,0,0,0,0,0,0,0,0,0,0,0,0,0,0,0,0,0,0,0,0,0,0,0,0,0,0,0,0,0,0,0,0,0,0,0,1,-7,-1,-4,0,0
1769081546297,1769081546297,0,0,0,0,0,0,0,0,0,0,0,0,0,0,0,0,0,0,0,0,0,0,0,0,0,0,0,0,0,0,0,0,0,0,0,0,0,0,0,0,1,19986
1769081546299,1769081546299,0,0,0,0,0,0,0,0,0,0,0,0,0,0,0,0,0,0,0,0,0,0,0,0,0,0,0,0,0,0,0,0,1,-553,-618,4010,0,0,0,0,0,0
1769081546304,1769081546304,0,0,0,0,0,1,71,75,1,97,99,1,352242,12949,18884,0,0,0,0,0,0,0,0,0,1,-172,126,-976,0,0,0,0,0,0,0,0,0,0,0,0,0,0
1769081546319,1769081546319,0,0,0,0,0,0,0,0,0,0,0,0,0,0,0,0,0,0,0,0,0,0,0,0,0,0,0,0,0,0,0,0,0,0,0,0,1,-8,-5,-4,0,0
1769081546334,1769081546334,0,0,0,0,0,0,0,0,0,0,0,0,0,0,0,0,0,0,0,0,0,0,0,0,0,0,0,0,0,0,0,0,0,0,0,0,0,0,0,0,1,19987
1769081546339,1769081546339,0,0,0,0,0,0,0,0,0,0,0,0,0,0,0,0,0,0,0,0,0,0,0,0,0,0,0,0,0,0,0,0,1,-548,-572,4021,0,0,0,0,0,0
1769081546341,1769081546341,0,0,0,0,0,0,0,0,0,0,0,0,0,0,0,0,0,0,0,0,0,0,0,0,0,0,0,0,0,0,0,0,0,0,0,0,0,0,0,0,1,19988
1769081546344,1769081546344,0,0,0,0,0,1,71,75,1,97,99,1,352256,12944,18884,0,0,0,0,0,0,0,0,0,1,-177,125,-977,0,0,0,0,0,0,0,0,0,0,0,0,0,0
1769081546357,1769081546357,0,0,0,0,0,0,0,0,0,0,0,0,0,0,0,0,0,0,0,0,0,0,0,0,0,0,0,0,0,0,0,0,0,0,0,0,0,0,0,0,1,19989
1769081546358,1769081546358,0,0,0,0,0,0,0,0,0,0,0,0,0,0,0,0,0,0,0,0,0,0,0,0,0,0,0,0,0,0,0,0,0,0,0,0,1,14,-3,6,0,0
1769081546378,1769081546378,0,0,0,0,0,0,0,0,0,0,0,0,0,0,0,0,0,0,0,0,0,0,0,0,0,0,0,0,0,0,0,0,1,-556,-591,4010,0,0,0,0,0,0
1769081546379,1769081546379,0,0,0,0,0,0,0,0,0,0,0,0,0,0,0,0,0,0,0,0,0,0,0,0,0,0,0,0,0,0,0,0,0,0,0,0,0,0,0,0,1,19990
1769081546384,1769081546384,0,0,0,0,0,1,71,75,1,97,99,1,352280,12950,18888,0,0,0,0,0,0,0,0,0,1,-171,126,-974,0,0,0,0,0,0,0,0,0,0,0,0,0,0
1769081546398,1769081546398,0,0,0,0,0,0,0,0,0,0,0,0,0,0,0,0,0,0,0,0,0,0,0,0,0,0,0,0,0,0,0,0,0,0,0,0,1,7,4,8,0,0
1769081546401,1769081546401,0,0,0,0,0,0,0,0,0,0,0,0,0,0,0,0,0,0,0,0,0,0,0,0,0,0,0,0,0,0,0,0,0,0,0,0,0,0,0,0,1,19991
1769081546418,1769081546418,0,0,0,0,0,0,0,0,0,0,0,0,0,0,0,0,0,0,0,0,0,0,0,0,0,0,0,0,0,0,0,0,1,-554,-590,4014,0,0,0,0,0,0
1769081546424,1769081546424,0,0,0,0,0,1,71,75,1,97,99,1,352327,12954,18889,0,0,0,0,0,0,0,0,0,1,-196,124,-982,0,0,0,0,0,0,0,0,0,0,0,0,0,0
1769081546425,1769081546425,0,0,0,0,0,0,0,0,0,0,0,0,0,0,0,0,0,0,0,0,0,0,0,0,0,0,0,0,0,0,0,0,0,0,0,0,0,0,0,0,1,19992
1769081546438,1769081546438,0,0,0,0,0,0,0,0,0,0,0,0,0,0,0,0,0,0,0,0,0,0,0,0,0,0,0,0,0,0,0,0,0,0,0,0,1,-1,5,0,0,0
1769081546446,1769081546446,0,0,0,0,0,0,0,0,0,0,0,0,0,0,0,0,0,0,0,0,0,0,0,0,0,0,0,0,0,0,0,0,0,0,0,0,0,0,0,0,1,19993
1769081546458,1769081546458,0,0,0,0,0,0,0,0,0,0,0,0,0,0,0,1,999,99903,0,0,0,0,0,0,0,0,0,0,0,0,0,0,1,-570,-589,4009,0,0,0,0,0,0
1769081546462,1769081546462,0,0,0,0,0,0,0,0,0,0,0,0,0,0,0,0,0,0,0,0,0,0,0,0,0,0,0,0,0,0,0,0,0,0,0,0,0,0,0,0,1,19994
1769081546464,1769081546464,0,0,0,0,0,1,71,75,1,97,99,1,352380,12963,18895,0,0,0,0,0,0,0,0,0,1,-185,127,-975,0,0,0,0,0,0,0,0,0,0,0,0,0,0
1769081546478,1769081546478,0,0,0,0,0,0,0,0,0,0,0,0,0,0,0,0,0,0,0,0,0,0,0,0,0,0,0,0,0,0,0,0,0,0,0,0,1,4,2,0,0,0
1769081546489,1769081546489,0,0,0,0,0,0,0,0,0,0,0,0,0,0,0,0,0,0,0,0,0,0,0,0,0,0,0,0,0,0,0,0,0,0,0,0,0,0,0,0,1,19995
1769081546498,1769081546498,0,0,0,0,0,0,0,0,0,0,0,0,0,0,0,0,0,0,0,0,0,0,0,0,0,0,0,0,0,0,0,0,1,-557,-589,4012,0,0,0,0,0,0
1769081546504,1769081546504,0,0,0,0,0,1,71,75,1,97,99,1,352458,12973,18900,0,0,0,0,0,0,0,0,0,1,-167,124,-978,0,0,0,0,0,0,0,0,0,0,0,0,0,0
1769081546516,1769081546516,0,0,0,0,0,0,0,0,0,0,0,0,0,0,0,0,0,0,0,0,0,0,0,0,0,0,0,0,0,0,0,0,0,0,0,0,0,0,0,0,1,19996
1769081546518,1769081546518,0,0,0,0,0,0,0,0,0,0,0,0,0,0,0,0,0,0,0,0,0,0,0,0,0,0,0,0,0,0,0,0,0,0,0,0,1,9,-2,2,0,0
1769081546528,1769081546528,0,0,0,0,0,0,0,0,0,0,0,0,0,0,0,0,0,0,0,0,0,0,0,0,0,0,0,0,0,0,0,0,0,0,0,0,0,0,0,0,1,19997
1769081546538,1769081546538,0,0,0,0,0,0,0,0,0,0,0,0,0,0,0,0,0,0,0,0,0,0,0,0,0,0,0,0,0,0,0,0,1,-546,-574,4020,0,0,0,0,0,0
1769081546544,1769081546544,0,0,0,0,0,1,71,75,1,97,99,1,352558,12999,18919,0,0,0,0,0,0,0,0,0,1,-179,117,-976,0,0,0,0,0,0,0,0,0,0,0,0,0,0
1769081546557,1769081546557,0,0,0,0,0,0,0,0,0,0,0,0,0,0,0,0,0,0,0,0,0,0,0,0,0,0,0,0,0,0,0,0,0,0,0,0,1,17,-4,8,0,0
1769081546575,1769081546575,0,0,0,0,0,0,0,0,0,0,0,0,0,0,0,0,0,0,0,0,0,0,0,0,0,0,0,0,0,0,0,0,0,0,0,0,0,0,0,0,1,19998
1769081546576,1769081546576,0,0,0,0,0,0,0,0,0,0,0,0,0,0,0,0,0,0,0,0,0,0,0,0,0,0,0,0,0,0,0,0,0,0,0,0,0,0,0,0,1,19999
1769081546577,1769081546577,0,0,0,0,0,0,0,0,0,0,0,0,0,0,0,0,0,0,0,0,0,0,0,0,0,0,0,0,0,0,0,0,1,-558,-573,4017,0,0,0,0,0,0
1769081546584,1769081546584,0,0,0,0,0,1,71,75,1,97,99,1,352691,13037,18952,0,0,0,0,0,0,0,0,0,1,-197,123,-972,0,0,0,0,0,0,0,0,0,0,0,0,0,0
1769081546597,1769081546597,0,0,0,0,0,0,0,0,0,0,0,0,0,0,0,0,0,0,0,0,0,0,0,0,0,0,0,0,0,0,0,0,0,0,0,0,1,11,-1,7,0,0
1769081546617,1769081546617,0,0,0,0,0,0,0,0,0,0,0,0,0,0,0,0,0,0,0,0,0,0,0,0,0,0,0,0,0,0,0,0,1,-560,-591,4009,0,0,0,0,0,0
1769081546624,1769081546624,0,0,0,0,0,1,71,75,1,97,99,1,352879,13087,18995,0,0,0,0,0,0,0,0,0,1,-139,135,-976,0,0,0,0,0,0,0,0,0,0,0,0,0,0
1769081546637,1769081546637,0,0,0,0,0,0,0,0,0,0,0,0,0,0,0,0,0,0,0,0,0,0,0,0,0,0,0,0,0,0,0,0,0,0,0,0,1,0,-4,0,0,0
1769081546657,1769081546657,0,0,0,0,0,0,0,0,0,0,0,0,0,0,0,0,0,0,0,0,0,0,0,0,0,0,0,0,0,0,0,0,1,-548,-538,4030,0,0,0,0,0,0
1769081546664,1769081546664,0,0,0,0,0,1,71,75,1,97,99,1,353103,13153,19064,0,0,0,0,0,0,0,0,0,1,-138,155,-994,0,0,0,0,0,0,0,0,0,0,0,0,0,0
1769081546677,1769081546677,0,0,0,0,0,0,0,0,0,0,0,0,0,0,0,0,0,0,0,0,0,0,0,0,0,0,0,0,0,0,0,0,0,0,0,0,1,13,-1,-6,0,0
1769081546697,1769081546697,0,0,0,0,0,0,0,0,0,0,0,0,0,0,0,0,0,0,0,0,0,0,0,0,0,0,0,0,0,0,0,0,1,-549,-615,4006,0,0,0,0,0,0
1769081546704,1769081546704,0,0,0,0,0,1,71,75,1,97,99,1,353379,13245,19164,0,0,0,0,0,0,0,0,0,1,-282,165,-1223,0,0,0,0,0,0,0,0,0,0,0,0,0,0
1769081546717,1769081546717,0,0,0,0,0,0,0,0,0,0,0,0,0,0,0,0,0,0,0,0,0,0,0,0,0,0,0,0,0,0,0,0,0,0,0,0,1,-20,0,-9,0,0
1769081546736,1769081546736,0,0,0,0,0,0,0,0,0,0,0,0,0,0,0,0,0,0,0,0,0,0,0,0,0,0,0,0,0,0,0,0,1,-565,-575,4011,0,0,0,0,0,0
1769081546744,1769081546744,0,0,0,0,0,1,71,75,1,97,99,1,353323,13224,19158,0,0,0,0,0,0,0,0,0,1,-39,203,-1057,0,0,0,0,0,0,0,0,0,0,0,0,0,0
1769081546756,1769081546756,0,0,0,0,0,0,0,0,0,0,0,0,0,0,0,0,0,0,0,0,0,0,0,0,0,0,0,0,0,0,0,0,0,0,0,0,1,13,-3,-2,0,0
1769081546776,1769081546776,0,0,0,0,0,0,0,0,0,0,0,0,0,0,0,0,0,0,0,0,0,0,0,0,0,0,0,0,0,0,0,0,1,-545,-550,4030,0,0,0,0,0,0
1769081546784,1769081546784,0,0,0,0,0,1,71,75,1,97,99,1,352794,12991,18987,0,0,0,0,0,0,0,0,0,1,-20,122,-967,0,0,0,0,0,0,0,0,0,0,0,0,0,0
1769081546796,1769081546796,0,0,0,0,0,0,0,0,0,0,0,0,0,0,0,0,0,0,0,0,0,0,0,0,0,0,0,0,0,0,0,0,0,0,0,0,1,20,-10,-5,0,0
1769081546816,1769081546816,0,0,0,0,0,0,0,0,0,0,0,0,0,0,0,0,0,0,0,0,0,0,0,0,0,0,0,0,0,0,0,0,1,-543,-587,4016,0,0,0,0,0,0
1769081546824,1769081546824,0,0,0,0,0,1,71,75,1,97,99,1,351995,12560,18656,0,0,0,0,0,0,0,0,0,1,-187,161,-1197,0,0,0,0,0,0,0,0,0,0,0,0,0,0
1769081546836,1769081546836,0,0,0,0,0,0,0,0,0,0,0,0,0,0,0,0,0,0,0,0,0,0,0,0,0,0,0,0,0,0,0,0,0,0,0,0,1,-16,-2,-11,0,0
1769081546856,1769081546856,0,0,0,0,0,0,0,0,0,0,0,0,0,0,0,0,0,0,0,0,0,0,0,0,0,0,0,0,0,0,0,0,1,-551,-567,4022,0,0,0,0,0,0
1769081546864,1769081546864,0,0,0,0,0,1,71,75,1,97,99,1,351402,12250,18379,0,0,0,0,0,0,0,0,0,1,-23,232,-1016,0,0,0,0,0,0,0,0,0,0,0,0,0,0
1769081546876,1769081546876,0,0,0,0,0,0,0,0,0,0,0,0,0,0,0,0,0,0,0,0,0,0,0,0,0,0,0,0,0,0,0,0,0,0,0,0,1,0,8,-16,0,0
1769081546896,1769081546896,0,0,0,0,0,0,0,0,0,0,0,0,0,0,0,0,0,0,0,0,0,0,0,0,0,0,0,0,0,0,0,0,1,-545,-611,4014,0,0,0,0,0,0
1769081546904,1769081546904,0,0,0,0,0,1,71,100,1,97,99,1,351197,12202,18314,0,0,0,0,0,0,0,0,0,1,-128,76,-946,0,0,0,0,0,0,0,0,0,0,0,0,0,0
1769081546915,1769081546915,0,0,0,0,0,0,0,0,0,0,0,0,0,0,0,0,0,0,0,0,0,0,0,0,0,0,0,0,0,0,0,0,0,0,0,0,1,-6,8,-19,0,0
1769081546935,1769081546935,0,0,0,0,0,0,0,0,0,0,0,0,0,0,0,0,0,0,0,0,0,0,0,0,0,0,0,0,0,0,0,0,1,-558,-590,4007,0,0,0,0,0,0
1769081546944,1769081546944,0,0,0,0,0,1,71,100,1,97,99,1,351183,12291,18382,0,0,0,0,0,0,0,0,0,1,35,85,-928,0,0,0,0,0,0,0,0,0,0,0,0,0,0
1769081546955,1769081546955,0,0,0,0,0,0,0,0,0,0,0,0,0,0,0,0,0,0,0,0,0,0,0,0,0,0,0,0,0,0,0,0,0,0,0,0,1,17,12,-17,0,0
1769081546975,1769081546975,0,0,0,0,0,0,0,0,0,0,0,0,0,0,0,0,0,0,0,0,0,0,0,0,0,0,0,0,0,0,0,0,1,-541,-538,4030,0,0,0,0,0,0
1769081546984,1769081546984,0,0,0,0,0,1,71,100,1,97,99,1,351222,12386,18461,0,0,0,0,0,0,0,0,0,1,49,81,-956,0,0,0,0,0,0,0,0,0,0,0,0,0,0
1769081546987,1769081546987,0,0,0,0,0,0,0,0,0,0,0,0,0,0,0,0,0,0,0,0,0,0,0,0,0,0,0,0,0,0,0,0,0,0,0,0,0,0,0,0,1,20000
1769081546995,1769081546995,0,0,0,0,0,0,0,0,0,0,0,0,0,0,0,0,0,0,0,0,0,0,0,0,0,0,0,0,0,0,0,0,0,0,0,0,1,46,16,-13,0,0
1769081547012,1769081547012,0,0,0,0,0,0,0,0,0,0,0,0,0,0,0,0,0,0,0,0,0,0,0,0,0,0,0,0,0,0,0,0,0,0,0,0,0,0,0,0,1,20001
1769081547015,1769081547015,0,0,0,0,0,0,0,0,0,0,0,0,0,0,0,0,0,0,0,0,0,0,0,0,0,0,0,0,0,0,0,0,1,-535,-584,4025,0,0,0,0,0,0
1769081547024,1769081547024,0,0,0,0,0,1,72,100,1,97,99,1,351162,12409,18486,0,0,0,0,0,0,0,1,3,1,31,83,-984,0,0,0,0,0,0,0,0,0,0,0,0,0,0
1769081547035,1769081547035,0,0,0,0,0,0,0,0,0,0,0,0,0,0,0,0,0,0,0,0,0,0,0,0,0,0,0,0,0,0,0,0,0,0,0,0,1,29,46,-50,0,0
1769081547040,1769081547040,0,0,0,0,0,0,0,0,0,0,0,0,0,0,0,0,0,0,0,0,0,0,0,0,0,0,0,0,0,0,0,0,0,0,0,0,0,0,0,0,1,20002
1769081547046,1769081547046,0,0,0,0,0,0,0,0,0,0,0,0,0,0,0,0,0,0,1,30.46965980529785,1,27.0733585357666,0,0,0,0,0,0,0,0,0,0,0,0,0,0,0,0,0,0,0,0
1769081547048,1769081547048,1,-13,3835,300,58.400000000000006,0,0,0,0,0,0,0,0,0,0,0,0,0,0,0,0,0,0,0,0,0,0,0,0,0,0,0,0,0,0,0,0,0,0,0,0,0
1769081547054,1769081547054,0,0,0,0,0,0,0,0,0,0,0,0,0,0,0,0,0,0,0,0,0,0,0,0,0,0,0,0,0,0,0,0,0,0,0,0,0,0,0,0,1,20003
1769081547055,1769081547055,0,0,0,0,0,0,0,0,0,0,0,0,0,0,0,0,0,0,0,0,0,0,0,0,0,0,0,0,0,0,0,0,1,-543,-624,4004,0,0,0,0,0,0
1769081547064,1769081547064,0,0,0,0,0,1,72,100,1,97,99,1,351050,12421,18494,0,0,0,0,0,0,0,0,0,1,-9,95,-1015,0,0,0,0,0,0,0,0,0,0,0,0,0,0
1769081547070,1769081547070,0,0,0,0,0,0,0,0,0,0,0,0,0,0,0,0,0,0,0,0,0,0,0,0,0,0,0,0,0,0,0,0,0,0,0,0,0,0,0,0,1,20004
1769081547075,1769081547075,0,0,0,0,0,0,0,0,0,0,0,0,0,0,0,0,0,0,0,0,0,0,0,0,0,0,0,0,0,0,0,0,0,0,0,0,1,60,101,-126,0,0
1769081547091,1769081547091,0,0,0,0,0,0,0,0,0,0,0,0,0,0,0,0,0,0,0,0,0,0,0,0,0,0,0,0,0,0,0,0,0,0,0,0,0,0,0,0,1,20005
1769081547094,1769081547094,0,0,0,0,0,0,0,0,0,0,0,0,0,0,0,0,0,0,0,0,0,0,0,0,0,0,0,0,0,0,0,0,1,-569,-471,4081,0,0,0,0,0,0
1769081547097,1769081547097,0,0,0,0,0,0,0,0,0,0,0,0,0,0,0,1,999,99903,0,0,0,0,0,0,0,0,0,0,0,0,0,0,0,0,0,0,0,0,0,0,0,0
1769081547104,1769081547104,0,0,0,0,0,1,72,100,1,97,99,1,350953,12438,18511,0,0,0,0,0,0,0,0,0,1,20,93,-1002,0,0,0,0,0,0,0,0,0,0,0,0,0,0
1769081547114,1769081547114,0,0,0,0,0,0,0,0,0,0,0,0,0,0,0,0,0,0,0,0,0,0,0,0,0,0,0,0,0,0,0,0,0,0,0,0,1,131,178,-169,0,0
1769081547118,1769081547118,0,0,0,0,0,0,0,0,0,0,0,0,0,0,0,0,0,0,0,0,0,0,0,0,0,0,0,0,0,0,0,0,0,0,0,0,0,0,0,0,1,20006
1769081547134,1769081547134,0,0,0,0,0,0,0,0,0,0,0,0,0,0,0,0,0,0,0,0,0,0,0,0,0,0,0,0,0,0,0,0,1,-601,-430,4128,0,0,0,0,0,0
1769081547138,1769081547138,0,0,0,0,0,0,0,0,0,0,0,0,0,0,0,0,0,0,0,0,0,0,0,0,0,0,0,0,0,0,0,0,0,0,0,0,0,0,0,0,1,20007
1769081547144,1769081547144,0,0,0,0,0,1,72,100,1,97,99,1,350896,12454,18526,0,0,0,0,0,0,0,0,0,1,60,72,-960,0,0,0,0,0,0,0,0,0,0,0,0,0,0
1769081547154,1769081547154,0,0,0,0,0,0,0,0,0,0,0,0,0,0,0,0,0,0,0,0,0,0,0,0,0,0,0,0,0,0,0,0,0,0,0,0,1,-3,204,-165,0,0
1769081547174,1769081547174,0,0,0,0,0,0,0,0,0,0,0,0,0,0,0,0,0,0,0,0,0,0,0,0,0,0,0,0,0,0,0,0,1,-638,-877,4287,0,0,0,0,0,0
1769081547184,1769081547184,0,0,0,0,0,1,72,100,1,97,99,1,350874,12385,18473,0,0,0,0,0,0,0,0,0,1,54,54,-934,0,0,0,0,0,0,0,0,0,0,0,0,0,0
1769081547194,1769081547194,0,0,0,0,0,0,0,0,0,0,0,0,0,0,0,0,0,0,0,0,0,0,0,0,0,0,0,0,0,0,0,0,0,0,0,0,1,83,112,3,0,0
1769081547214,1769081547214,0,0,0,0,0,0,0,0,0,0,0,0,0,0,0,0,0,0,0,0,0,0,0,0,0,0,0,0,0,0,0,0,1,-942,-401,4627,0,0,0,0,0,0
1769081547224,1769081547224,0,0,0,0,0,1,72,100,1,97,99,1,350882,12142,18273,0,0,0,0,0,0,0,0,0,1,148,78,-984,0,0,0,0,0,0,0,0,0,0,0,0,0,0
1769081547234,1769081547234,0,0,0,0,0,0,0,0,0,0,0,0,0,0,0,0,0,0,0,0,0,0,0,0,0,0,0,0,0,0,0,0,0,0,0,0,1,1642,176,32,0,0
1769081547254,1769081547254,0,0,0,0,0,0,0,0,0,0,0,0,0,0,0,0,0,0,0,0,0,0,0,0,0,0,0,0,0,0,0,0,1,-601,-201,4152,0,0,0,0,0,0
1769081547264,1769081547264,0,0,0,0,0,1,72,100,1,97,99,1,350860,11864,18026,0,0,0,0,0,0,0,0,0,1,186,48,-940,0,0,0,0,0,0,0,0,0,0,0,0,0,0
1769081547274,1769081547274,0,0,0,0,0,0,0,0,0,0,0,0,0,0,0,0,0,0,0,0,0,0,0,0,0,0,0,0,0,0,0,0,0,0,0,0,1,1544,-32,-191,0,0
1769081547293,1769081547293,0,0,0,0,0,0,0,0,0,0,0,0,0,0,0,0,0,0,0,0,0,0,0,0,0,0,0,0,0,0,0,0,1,-685,-478,4627,0,0,0,0,0,0
1769081547294,1769081547294,0,0,0,0,0,0,0,0,0,0,0,0,0,0,0,0,0,0,0,0,0,0,0,0,0,0,0,0,0,0,0,0,0,0,0,0,0,0,0,0,1,20008
1769081547295,1769081547295,0,0,0,0,0,0,0,0,0,0,0,0,0,0,0,0,0,0,0,0,0,0,0,0,0,0,0,0,0,0,0,0,0,0,0,0,0,0,0,0,1,20009
1769081547296,1769081547296,0,0,0,0,0,0,0,0,0,0,0,0,0,0,0,0,0,0,0,0,0,0,0,0,0,0,0,0,0,0,0,0,0,0,0,0,0,0,0,0,1,20011
1769081547304,1769081547304,0,0,0,0,0,1,72,100,1,97,99,1,350819,11558,17752,0,0,0,0,0,0,0,0,0,1,113,72,-1000,0,0,0,0,0,0,0,0,0,0,0,0,0,0
1769081547313,1769081547313,0,0,0,0,0,0,0,0,0,0,0,0,0,0,0,0,0,0,0,0,0,0,0,0,0,0,0,0,0,0,0,0,0,0,0,0,1,942,-277,-231,0,0
1769081547321,1769081547321,0,0,0,0,0,0,0,0,0,0,0,0,0,0,0,0,0,0,0,0,0,0,0,0,0,0,0,0,0,0,0,0,0,0,0,0,0,0,0,0,1,20015
1769081547324,1769081547324,0,0,0,0,0,0,0,0,0,0,0,0,0,0,0,0,0,0,0,0,0,0,0,0,0,0,0,0,0,0,0,0,0,0,0,0,0,0,0,0,1,20016
1769081547333,1769081547333,0,0,0,0,0,0,0,0,0,0,0,0,0,0,0,0,0,0,0,0,0,0,0,0,0,0,0,0,0,0,0,0,1,-794,71,4380,0,0,0,0,0,0
1769081547344,1769081547344,0,0,0,0,0,1,72,100,1,97,99,1,350693,11114,17340,0,0,0,0,0,0,0,0,0,1,258,80,-932,0,0,0,0,0,0,0,0,0,0,0,0,0,0
1769081547353,1769081547353,0,0,0,0,0,0,0,0,0,0,0,0,0,0,0,0,0,0,0,0,0,0,0,0,0,0,0,0,0,0,0,0,0,0,0,0,1,362,-481,-427,0,0
1769081547358,1769081547358,0,0,0,0,0,0,0,0,0,0,0,0,0,0,0,0,0,0,0,0,0,0,0,0,0,0,0,0,0,0,0,0,0,0,0,0,0,0,0,0,1,20017
1769081547373,1769081547373,0,0,0,0,0,0,0,0,0,0,0,0,0,0,0,0,0,0,0,0,0,0,0,0,0,0,0,0,0,0,0,0,1,-414,-276,3837,0,0,0,0,0,0
1769081547375,1769081547375,0,0,0,0,0,0,0,0,0,0,0,0,0,0,0,0,0,0,0,0,0,0,0,0,0,0,0,0,0,0,0,0,0,0,0,0,0,0,0,0,1,20018
1769081547384,1769081547384,0,0,0,0,0,1,72,100,1,97,99,1,350647,10936,17180,0,0,0,0,0,0,0,0,0,1,178,61,-960,0,0,0,0,0,0,0,0,0,0,0,0,0,0
1769081547393,1769081547393,0,0,0,0,0,0,0,0,0,0,0,0,0,0,0,0,0,0,0,0,0,0,0,0,0,0,0,0,0,0,0,0,0,0,0,0,1,-41,-627,-577,1,20019
1769081547413,1769081547413,0,0,0,0,0,0,0,0,0,0,0,0,0,0,0,0,0,0,0,0,0,0,0,0,0,0,0,0,0,0,0,0,1,-388,107,3835,0,0,0,0,0,0
1769081547414,1769081547414,0,0,0,0,0,0,0,0,0,0,0,0,0,0,0,0,0,0,0,0,0,0,0,0,0,0,0,0,0,0,0,0,0,0,0,0,0,0,0,0,1,20020
1769081547424,1769081547424,0,0,0,0,0,1,72,100,1,97,99,1,350567,10594,16867,0,0,0,0,0,0,0,0,0,1,222,94,-974,0,0,0,0,0,0,0,0,0,0,0,0,0,0
1769081547433,1769081547433,0,0,0,0,0,0,0,0,0,0,0,0,0,0,0,0,0,0,0,0,0,0,0,0,0,0,0,0,0,0,0,0,0,0,0,0,1,94,-461,-720,0,0
1769081547444,1769081547444,0,0,0,0,0,0,0,0,0,0,0,0,0,0,0,0,0,0,0,0,0,0,0,0,0,0,0,0,0,0,0,0,0,0,0,0,0,0,0,0,1,20021
1769081547453,1769081547453,0,0,0,0,0,0,0,0,0,0,0,0,0,0,0,0,0,0,0,0,0,0,0,0,0,0,0,0,0,0,0,0,1,-344,355,3928,0,0,0,0,0,0
1769081547462,1769081547462,0,0,0,0,0,0,0,0,0,0,0,0,0,0,0,0,0,0,0,0,0,0,0,0,0,0,0,0,0,0,0,0,0,0,0,0,0,0,0,0,1,20022
1769081547464,1769081547464,0,0,0,0,0,1,72,100,1,97,99,1,350471,10392,16705,0,0,0,0,0,0,0,0,0,1,204,102,-948,0,0,0,0,0,0,0,0,0,0,0,0,0,0
1769081547472,1769081547472,0,0,0,0,0,0,0,0,0,0,0,0,0,0,0,0,0,0,0,0,0,0,0,0,0,0,0,0,0,0,0,0,0,0,0,0,1,142,-290,-714,0,0
1769081547475,1769081547475,0,0,0,0,0,0,0,0,0,0,0,0,0,0,0,0,0,0,0,0,0,0,0,0,0,0,0,0,0,0,0,0,0,0,0,0,0,0,0,0,1,20023
1769081547492,1769081547492,0,0,0,0,0,0,0,0,0,0,0,0,0,0,0,0,0,0,0,0,0,0,0,0,0,0,0,0,0,0,0,0,1,-291,268,3977,0,0,0,0,0,0
1769081547500,1769081547500,0,0,0,0,0,0,0,0,0,0,0,0,0,0,0,0,0,0,0,0,0,0,0,0,0,0,0,0,0,0,0,0,0,0,0,0,0,0,0,0,1,20024
1769081547504,1769081547504,0,0,0,0,0,1,72,100,1,97,99,1,350449,10275,16610,0,0,0,0,0,0,0,0,0,1,284,65,-933,0,0,0,0,0,0,0,0,0,0,0,0,0,0
1769081547512,1769081547512,0,0,0,0,0,0,0,0,0,0,0,0,0,0,0,0,0,0,0,0,0,0,0,0,0,0,0,0,0,0,0,0,0,0,0,0,1,115,-189,-604,0,0
1769081547521,1769081547521,0,0,0,0,0,0,0,0,0,0,0,0,0,0,0,0,0,0,0,0,0,0,0,0,0,0,0,0,0,0,0,0,0,0,0,0,0,0,0,0,1,20025
1769081547532,1769081547532,0,0,0,0,0,0,0,0,0,0,0,0,0,0,0,0,0,0,0,0,0,0,0,0,0,0,0,0,0,0,0,0,1,-414,132,4089,0,0,0,0,0,0
1769081547544,1769081547544,0,0,0,0,0,1,72,75,1,97,99,1,350410,10216,16573,0,0,0,0,0,0,0,0,0,1,244,120,-942,0,0,0,0,0,0,0,0,0,0,0,0,0,0
1769081547549,1769081547549,0,0,0,0,0,0,0,0,0,0,0,0,0,0,0,0,0,0,0,0,0,0,0,0,0,0,0,0,0,0,0,0,0,0,0,0,0,0,0,0,1,20026
1769081547552,1769081547552,0,0,0,0,0,0,0,0,0,0,0,0,0,0,0,0,0,0,0,0,0,0,0,0,0,0,0,0,0,0,0,0,0,0,0,0,1,256,-41,-519,0,0
1769081547557,1769081547557,0,0,0,0,0,0,0,0,0,0,0,0,0,0,0,0,0,0,0,0,0,0,0,0,0,0,0,0,0,0,0,0,0,0,0,0,0,0,0,0,1,20027
1769081547572,1769081547572,0,0,0,0,0,0,0,0,0,0,0,0,0,0,0,0,0,0,0,0,0,0,0,0,0,0,0,0,0,0,0,0,1,-419,225,4160,0,0,0,0,0,0
1769081547581,1769081547581,0,0,0,0,0,0,0,0,0,0,0,0,0,0,0,0,0,0,0,0,0,0,0,0,0,0,0,0,0,0,0,0,0,0,0,0,0,0,0,0,1,20028
1769081547584,1769081547584,0,0,0,0,0,1,72,75,1,97,99,1,350391,10206,16571,0,0,0,0,0,0,0,0,0,1,258,116,-920,0,0,0,0,0,0,0,0,0,0,0,0,0,0
1769081547592,1769081547592,0,0,0,0,0,0,0,0,0,0,0,0,0,0,0,0,0,0,0,0,0,0,0,0,0,0,0,0,0,0,0,0,0,0,0,0,1,468,-18,-501,0,0
1769081547612,1769081547612,0,0,0,0,0,0,0,0,0,0,0,0,0,0,0,0,0,0,0,0,0,0,0,0,0,0,0,0,0,0,0,0,1,-336,341,4003,0,0,0,0,0,0
1769081547624,1769081547624,0,0,0,0,0,1,72,75,1,97,99,1,350324,10164,16545,0,0,0,0,0,0,0,0,0,1,279,93,-878,0,0,0,0,0,0,0,0,0,0,0,0,0,0
1769081547632,1769081547632,0,0,0,0,0,0,0,0,0,0,0,0,0,0,0,0,0,0,0,0,0,0,0,0,0,0,0,0,0,0,0,0,0,0,0,0,1,475,-35,-506,0,0
1769081547652,1769081547652,0,0,0,0,0,0,0,0,0,0,0,0,0,0,0,0,0,0,0,0,0,0,0,0,0,0,0,0,0,0,0,0,1,-308,371,3819,0,0,0,0,0,0
1769081547664,1769081547664,0,0,0,0,0,1,72,75,1,97,99,1,350264,10143,16531,0,0,0,0,0,0,0,0,0,1,255,89,-888,0,0,0,0,0,0,0,0,0,0,0,0,0,0
1769081547671,1769081547671,0,0,0,0,0,0,0,0,0,0,0,0,0,0,0,0,0,0,0,0,0,0,0,0,0,0,0,0,0,0,0,0,0,0,0,0,1,344,-58,-523,0,0
1769081547691,1769081547691,0,0,0,0,0,0,0,0,0,0,0,0,0,0,0,0,0,0,0,0,0,0,0,0,0,0,0,0,0,0,0,0,1,-333,579,4045,0,0,0,0,0,0
1769081547704,1769081547704,0,0,0,0,0,1,72,75,1,97,99,1,350197,10133,16537,0,0,0,0,0,0,0,0,0,1,214,56,-902,0,0,0,0,0,0,0,0,0,0,0,0,0,0
1769081547711,1769081547711,0,0,0,0,0,0,0,0,0,0,0,0,0,0,0,0,0,0,0,0,0,0,0,0,0,0,0,0,0,0,0,0,0,0,0,0,1,468,-21,-550,0,0
1769081547731,1769081547731,0,0,0,0,0,0,0,0,0,0,0,0,0,0,0,0,0,0,0,0,0,0,0,0,0,0,0,0,0,0,0,0,1,-255,912,3975,0,0,0,0,0,0
1769081547736,1769081547736,0,0,0,0,0,0,0,0,0,0,0,0,0,0,0,1,999,99903,0,0,0,0,0,0,0,0,0,0,0,0,0,0,0,0,0,0,0,0,0,0,0,0
1769081547744,1769081547744,0,0,0,0,0,1,72,75,1,97,99,1,350083,10060,16475,0,0,0,0,0,0,0,0,0,1,217,-36,-883,0,0,0,0,0,0,0,0,0,0,0,0,0,0
1769081547751,1769081547751,0,0,0,0,0,0,0,0,0,0,0,0,0,0,0,0,0,0,0,0,0,0,0,0,0,0,0,0,0,0,0,0,0,0,0,0,1,501,-41,-564,0,0
1769081547771,1769081547771,0,0,0,0,0,0,0,0,0,0,0,0,0,0,0,0,0,0,0,0,0,0,0,0,0,0,0,0,0,0,0,0,1,-255,627,3973,0,0,0,0,0,0
1769081547784,1769081547784,0,0,0,0,0,1,72,75,1,97,99,1,349983,10047,16473,0,0,0,0,0,0,0,0,0,1,205,-45,-940,0,0,0,0,0,0,0,0,0,0,0,0,0,0
1769081547791,1769081547791,0,0,0,0,0,0,0,0,0,0,0,0,0,0,0,0,0,0,0,0,0,0,0,0,0,0,0,0,0,0,0,0,0,0,0,0,1,227,-139,-530,0,0
1769081547811,1769081547811,0,0,0,0,0,0,0,0,0,0,0,0,0,0,0,0,0,0,0,0,0,0,0,0,0,0,0,0,0,0,0,0,1,-355,1053,4026,0,0,0,0,0,0
1769081547824,1769081547824,0,0,0,0,0,1,72,75,1,97,99,1,349896,9958,16389,0,0,0,0,0,0,0,0,0,1,182,-60,-948,0,0,0,0,0,0,0,0,0,0,0,0,0,0
1769081547831,1769081547831,0,0,0,0,0,0,0,0,0,0,0,0,0,0,0,0,0,0,0,0,0,0,0,0,0,0,0,0,0,0,0,0,0,0,0,0,1,439,-141,-490,0,0
1769081547850,1769081547850,0,0,0,0,0,0,0,0,0,0,0,0,0,0,0,0,0,0,0,0,0,0,0,0,0,0,0,0,0,0,0,0,1,-255,995,3900,0,0,0,0,0,0
1769081547864,1769081547864,0,0,0,0,0,1,72,75,1,97,99,1,349798,9980,16426,0,0,0,0,0,0,0,0,0,1,238,-28,-964,0,0,0,0,0,0,0,0,0,0,0,0,0,0
1769081547870,1769081547870,0,0,0,0,0,0,0,0,0,0,0,0,0,0,0,0,0,0,0,0,0,0,0,0,0,0,0,0,0,0,0,0,0,0,0,0,1,302,-255,-477,0,0
1769081547890,1769081547890,0,0,0,0,0,0,0,0,0,0,0,0,0,0,0,0,0,0,0,0,0,0,0,0,0,0,0,0,0,0,0,0,1,-363,906,3946,0,0,0,0,0,0
1769081547904,1769081547904,0,0,0,0,0,1,72,75,1,97,99,1,349727,9998,16442,0,0,0,0,0,0,0,0,0,1,210,-25,-955,0,0,0,0,0,0,0,0,0,0,0,0,0,0
1769081547910,1769081547910,0,0,0,0,0,0,0,0,0,0,0,0,0,0,0,0,0,0,0,0,0,0,0,0,0,0,0,0,0,0,0,0,0,0,0,0,1,121,-278,-437,0,0
1769081547930,1769081547930,0,0,0,0,0,0,0,0,0,0,0,0,0,0,0,0,0,0,0,0,0,0,0,0,0,0,0,0,0,0,0,0,1,-427,1020,3938,0,0,0,0,0,0
1769081547944,1769081547944,0,0,0,0,0,1,72,50,1,97,99,1,349668,10031,16488,0,0,0,0,0,0,0,0,0,1,206,5,-993,0,0,0,0,0,0,0,0,0,0,0,0,0,0
1769081547950,1769081547950,0,0,0,0,0,0,0,0,0,0,0,0,0,0,0,0,0,0,0,0,0,0,0,0,0,0,0,0,0,0,0,0,0,0,0,0,1,462,-221,-424,0,0
1769081547970,1769081547970,0,0,0,0,0,0,0,0,0,0,0,0,0,0,0,0,0,0,0,0,0,0,0,0,0,0,0,0,0,0,0,0,1,-324,1183,3831,0,0,0,0,0,0
1769081547984,1769081547984,0,0,0,0,0,1,72,50,1,97,99,1,349622,10098,16572,0,0,0,0,0,0,0,0,0,1,208,-11,-976,0,0,0,0,0,0,0,0,0,0,0,0,0,0
1769081547990,1769081547990,0,0,0,0,0,0,0,0,0,0,0,0,0,0,0,0,0,0,0,0,0,0,0,0,0,0,0,0,0,0,0,0,0,0,0,0,1,338,-233,-397,0,0
1769081547999,1769081547999,0,0,0,0,0,0,0,0,0,0,0,0,0,0,0,0,0,0,0,0,0,0,0,0,0,0,0,0,0,0,0,0,0,0,0,0,0,0,0,0,1,20029
1769081548010,1769081548010,0,0,0,0,0,0,0,0,0,0,0,0,0,0,0,0,0,0,0,0,0,0,0,0,0,0,0,0,0,0,0,0,1,-467,1139,3888,0,0,0,0,0,0
1769081548023,1769081548023,0,0,0,0,0,0,0,0,0,0,0,0,0,0,0,0,0,0,0,0,0,0,0,0,0,0,0,0,0,0,0,0,0,0,0,0,0,0,0,0,1,20030
1769081548029,1769081548029,0,0,0,0,0,0,0,0,0,0,0,0,0,0,0,0,0,0,0,0,0,0,0,0,0,0,0,0,0,0,0,0,0,0,0,0,1,282,-129,-356,0,0
1769081548034,1769081548034,0,0,0,0,0,1,72,50,1,97,99,1,349514,10089,16576,0,0,0,0,0,0,0,1,3,1,165,17,-1002,0,0,0,0,0,0,0,0,0,0,0,0,0,0
1769081548037,1769081548037,0,0,0,0,0,0,0,0,0,0,0,0,0,0,0,0,0,0,0,0,0,0,0,0,0,0,0,0,0,0,0,0,0,0,0,0,0,0,0,0,1,20031
1769081548046,1769081548046,0,0,0,0,0,0,0,0,0,0,0,0,0,0,0,0,0,0,1,30.50387191772461,1,26.9682559967041,0,0,0,0,0,0,0,0,0,0,0,0,0,0,0,0,0,0,0,0
1769081548048,1769081548048,1,-12,3835,300,58.400000000000006,0,0,0,0,0,0,0,0,0,0,0,0,0,0,0,0,0,0,0,0,0,0,0,0,0,0,0,0,0,0,0,0,0,0,0,0,0
1769081548049,1769081548049,0,0,0,0,0,0,0,0,0,0,0,0,0,0,0,0,0,0,0,0,0,0,0,0,0,0,0,0,0,0,0,0,1,-483,1192,3831,0,0,0,0,0,0
1769081548066,1769081548066,0,0,0,0,0,0,0,0,0,0,0,0,0,0,0,0,0,0,0,0,0,0,0,0,0,0,0,0,0,0,0,0,0,0,0,0,0,0,0,0,1,20032
1769081548069,1769081548069,0,0,0,0,0,0,0,0,0,0,0,0,0,0,0,0,0,0,0,0,0,0,0,0,0,0,0,0,0,0,0,0,0,0,0,0,1,292,-107,-281,0,0
1769081548072,1769081548072,0,0,0,0,0,1,72,50,1,97,99,1,349331,10108,16595,0,0,0,0,0,0,0,0,0,1,183,46,-996,0,0,0,0,0,0,0,0,0,0,0,0,0,0
1769081548088,1769081548088,0,0,0,0,0,0,0,0,0,0,0,0,0,0,0,0,0,0,0,0,0,0,0,0,0,0,0,0,0,0,0,0,0,0,0,0,0,0,0,0,1,20033
1769081548089,1769081548089,0,0,0,0,0,0,0,0,0,0,0,0,0,0,0,0,0,0,0,0,0,0,0,0,0,0,0,0,0,0,0,0,1,-446,1211,3697,0,0,0,0,0,0
1769081548105,1769081548105,0,0,0,0,0,0,0,0,0,0,0,0,0,0,0,0,0,0,0,0,0,0,0,0,0,0,0,0,0,0,0,0,0,0,0,0,0,0,0,0,1,20034
1769081548109,1769081548109,0,0,0,0,0,0,0,0,0,0,0,0,0,0,0,0,0,0,0,0,0,0,0,0,0,0,0,0,0,0,0,0,0,0,0,0,1,142,-141,-197,0,0
1769081548110,1769081548110,0,0,0,0,0,1,72,50,1,97,99,1,349070,10144,16631,0,0,0,0,0,0,0,0,0,1,170,38,-976,0,0,0,0,0,0,0,0,0,0,0,0,0,0
1769081548127,1769081548127,0,0,0,0,0,0,0,0,0,0,0,0,0,0,0,0,0,0,0,0,0,0,0,0,0,0,0,0,0,0,0,0,0,0,0,0,0,0,0,0,1,20035
1769081548129,1769081548129,0,0,0,0,0,0,0,0,0,0,0,0,0,0,0,0,0,0,0,0,0,0,0,0,0,0,0,0,0,0,0,0,1,-374,1166,3650,0,0,0,0,0,0
1769081548148,1769081548148,0,0,0,0,0,1,72,50,1,97,99,1,348776,10121,16600,0,0,0,0,0,0,0,0,0,1,149,6,-983,0,0,0,0,0,0,0,0,0,0,0,0,0,0
1769081548149,1769081548149,0,0,0,0,0,0,0,0,0,0,0,0,0,0,0,0,0,0,0,0,0,0,0,0,0,0,0,0,0,0,0,0,0,0,0,0,1,56,-115,-193,1,20036
1769081548169,1769081548169,0,0,0,0,0,0,0,0,0,0,0,0,0,0,0,0,0,0,0,0,0,0,0,0,0,0,0,0,0,0,0,0,1,-319,1049,3726,0,0,0,0,0,0
1769081548173,1769081548173,0,0,0,0,0,0,0,0,0,0,0,0,0,0,0,0,0,0,0,0,0,0,0,0,0,0,0,0,0,0,0,0,0,0,0,0,0,0,0,0,1,20037
1769081548186,1769081548186,0,0,0,0,0,1,72,50,1,97,99,1,348504,10123,16603,0,0,0,0,0,0,0,0,0,1,168,11,-941,0,0,0,0,0,0,0,0,0,0,0,0,1,20038
1769081548189,1769081548189,0,0,0,0,0,0,0,0,0,0,0,0,0,0,0,0,0,0,0,0,0,0,0,0,0,0,0,0,0,0,0,0,0,0,0,0,1,-16,-119,-140,0,0
1769081548209,1769081548209,0,0,0,0,0,0,0,0,0,0,0,0,0,0,0,0,0,0,0,0,0,0,0,0,0,0,0,0,0,0,0,0,1,66,1043,3642,0,0,0,0,1,20039
1769081548224,1769081548224,0,0,0,0,0,1,72,50,1,97,99,1,348221,10111,16587,0,0,0,0,0,0,0,0,0,1,147,-7,-988,0,0,0,0,0,0,0,0,0,0,0,0,0,0
1769081548228,1769081548228,0,0,0,0,0,0,0,0,0,0,0,0,0,0,0,0,0,0,0,0,0,0,0,0,0,0,0,0,0,0,0,0,0,0,0,0,1,-88,-130,-140,0,0
1769081548232,1769081548232,0,0,0,0,0,0,0,0,0,0,0,0,0,0,0,0,0,0,0,0,0,0,0,0,0,0,0,0,0,0,0,0,0,0,0,0,0,0,0,0,1,20040
1769081548248,1769081548248,0,0,0,0,0,0,0,0,0,0,0,0,0,0,0,0,0,0,0,0,0,0,0,0,0,0,0,0,0,0,0,0,1,101,932,3864,0,0,0,0,0,0
1769081548254,1769081548254,0,0,0,0,0,0,0,0,0,0,0,0,0,0,0,0,0,0,0,0,0,0,0,0,0,0,0,0,0,0,0,0,0,0,0,0,0,0,0,0,1,20041
1769081548262,1769081548262,0,0,0,0,0,1,72,50,1,97,99,1,347975,10088,16552,0,0,0,0,0,0,0,0,0,1,147,-5,-984,0,0,0,0,0,0,0,0,0,0,0,0,0,0
1769081548268,1769081548268,0,0,0,0,0,0,0,0,0,0,0,0,0,0,0,0,0,0,0,0,0,0,0,0,0,0,0,0,0,0,0,0,0,0,0,0,1,-171,-70,-201,0,0
1769081548277,1769081548277,0,0,0,0,0,0,0,0,0,0,0,0,0,0,0,0,0,0,0,0,0,0,0,0,0,0,0,0,0,0,0,0,0,0,0,0,0,0,0,0,1,20042
1769081548288,1769081548288,0,0,0,0,0,0,0,0,0,0,0,0,0,0,0,0,0,0,0,0,0,0,0,0,0,0,0,0,0,0,0,0,1,210,897,3828,0,0,0,0,0,0
1769081548298,1769081548298,0,0,0,0,0,0,0,0,0,0,0,0,0,0,0,0,0,0,0,0,0,0,0,0,0,0,0,0,0,0,0,0,0,0,0,0,0,0,0,0,1,20043
1769081548300,1769081548300,0,0,0,0,0,1,72,50,1,97,99,1,347754,10115,16573,0,0,0,0,0,0,0,0,0,1,173,-1,-1001,0,0,0,0,0,0,0,0,0,0,0,0,0,0
1769081548308,1769081548308,0,0,0,0,0,0,0,0,0,0,0,0,0,0,0,0,0,0,0,0,0,0,0,0,0,0,0,0,0,0,0,0,0,0,0,0,1,-196,-41,-241,0,0
1769081548323,1769081548323,0,0,0,0,0,0,0,0,0,0,0,0,0,0,0,0,0,0,0,0,0,0,0,0,0,0,0,0,0,0,0,0,0,0,0,0,0,0,0,0,1,20044
1769081548328,1769081548328,0,0,0,0,0,0,0,0,0,0,0,0,0,0,0,0,0,0,0,0,0,0,0,0,0,0,0,0,0,0,0,0,1,122,1038,3992,0,0,0,0,0,0
1769081548337,1769081548337,0,0,0,0,0,0,0,0,0,0,0,0,0,0,0,0,0,0,0,0,0,0,0,0,0,0,0,0,0,0,0,0,0,0,0,0,0,0,0,0,1,20045
1769081548338,1769081548338,0,0,0,0,0,1,72,50,1,97,99,1,347556,10104,16553,0,0,0,0,0,0,0,0,0,1,142,-6,-1024,0,0,0,0,0,0,0,0,0,0,0,0,0,0
1769081548348,1769081548348,0,0,0,0,0,0,0,0,0,0,0,0,0,0,0,0,0,0,0,0,0,0,0,0,0,0,0,0,0,0,0,0,0,0,0,0,1,-27,-35,-292,0,0
1769081548359,1769081548359,0,0,0,0,0,0,0,0,0,0,0,0,0,0,0,0,0,0,0,0,0,0,0,0,0,0,0,0,0,0,0,0,0,0,0,0,0,0,0,0,1,20046
1769081548368,1769081548368,0,0,0,0,0,0,0,0,0,0,0,0,0,0,0,0,0,0,0,0,0,0,0,0,0,0,0,0,0,0,0,0,1,80,1001,3923,0,0,0,0,0,0
1769081548376,1769081548376,0,0,0,0,0,1,72,50,1,97,99,1,347351,10117,16555,1,999,99903,0,0,0,0,0,0,1,168,58,-999,0,0,0,0,0,0,0,0,0,0,0,0,0,0
1769081548388,1769081548388,0,0,0,0,0,0,0,0,0,0,0,0,0,0,0,0,0,0,0,0,0,0,0,0,0,0,0,0,0,0,0,0,0,0,0,0,1,-40,-99,-272,0,0
1769081548389,1769081548389,0,0,0,0,0,0,0,0,0,0,0,0,0,0,0,0,0,0,0,0,0,0,0,0,0,0,0,0,0,0,0,0,0,0,0,0,0,0,0,0,1,20047
1769081548407,1769081548407,0,0,0,0,0,0,0,0,0,0,0,0,0,0,0,0,0,0,0,0,0,0,0,0,0,0,0,0,0,0,0,0,1,19,959,4070,0,0,0,0,0,0
1769081548414,1769081548414,0,0,0,0,0,1,72,50,1,97,99,1,347197,10154,16585,0,0,0,0,0,0,0,0,0,1,169,39,-1008,0,0,0,0,0,0,0,0,0,0,0,0,0,0
1769081548419,1769081548419,0,0,0,0,0,0,0,0,0,0,0,0,0,0,0,0,0,0,0,0,0,0,0,0,0,0,0,0,0,0,0,0,0,0,0,0,0,0,0,0,1,20048
1769081548427,1769081548427,0,0,0,0,0,0,0,0,0,0,0,0,0,0,0,0,0,0,0,0,0,0,0,0,0,0,0,0,0,0,0,0,0,0,0,0,1,-65,-159,-211,0,0
1769081548429,1769081548429,0,0,0,0,0,0,0,0,0,0,0,0,0,0,0,0,0,0,0,0,0,0,0,0,0,0,0,0,0,0,0,0,0,0,0,0,0,0,0,0,1,20049
1769081548442,1769081548442,0,0,0,0,0,0,0,0,0,0,0,0,0,0,0,0,0,0,0,0,0,0,0,0,0,0,0,0,0,0,0,0,0,0,0,0,0,0,0,0,1,20050
1769081548447,1769081548447,0,0,0,0,0,0,0,0,0,0,0,0,0,0,0,0,0,0,0,0,0,0,0,0,0,0,0,0,0,0,0,0,1,-38,937,4067,0,0,0,0,0,0
1769081548452,1769081548452,0,0,0,0,0,1,72,50,1,97,99,1,347089,10185,16607,0,0,0,0,0,0,0,0,0,1,154,47,-1011,0,0,0,0,0,0,0,0,0,0,0,0,0,0
1769081548464,1769081548464,0,0,0,0,0,0,0,0,0,0,0,0,0,0,0,0,0,0,0,0,0,0,0,0,0,0,0,0,0,0,0,0,0,0,0,0,0,0,0,0,1,20051
1769081548467,1769081548467,0,0,0,0,0,0,0,0,0,0,0,0,0,0,0,0,0,0,0,0,0,0,0,0,0,0,0,0,0,0,0,0,0,0,0,0,1,-70,-163,-162,0,0
1769081548487,1769081548487,0,0,0,0,0,0,0,0,0,0,0,0,0,0,0,0,0,0,0,0,0,0,0,0,0,0,0,0,0,0,0,0,1,-44,958,4036,0,0,0,0,0,0
1769081548488,1769081548488,0,0,0,0,0,0,0,0,0,0,0,0,0,0,0,0,0,0,0,0,0,0,0,0,0,0,0,0,0,0,0,0,0,0,0,0,0,0,0,0,1,20052
1769081548490,1769081548490,0,0,0,0,0,1,72,50,1,97,99,1,347027,10206,16615,0,0,0,0,0,0,0,0,0,1,158,42,-988,0,0,0,0,0,0,0,0,0,0,0,0,0,0
1769081548507,1769081548507,0,0,0,0,0,0,0,0,0,0,0,0,0,0,0,0,0,0,0,0,0,0,0,0,0,0,0,0,0,0,0,0,0,0,0,0,1,-108,-131,-128,0,0
1769081548509,1769081548509,0,0,0,0,0,0,0,0,0,0,0,0,0,0,0,0,0,0,0,0,0,0,0,0,0,0,0,0,0,0,0,0,0,0,0,0,0,0,0,0,1,20053
1769081548525,1769081548525,0,0,0,0,0,0,0,0,0,0,0,0,0,0,0,0,0,0,0,0,0,0,0,0,0,0,0,0,0,0,0,0,0,0,0,0,0,0,0,0,1,20054
1769081548527,1769081548527,0,0,0,0,0,0,0,0,0,0,0,0,0,0,0,0,0,0,0,0,0,0,0,0,0,0,0,0,0,0,0,0,1,-170,796,4128,0,0,0,0,0,0
1769081548528,1769081548528,0,0,0,0,0,1,72,50,1,97,99,1,346984,10202,16608,0,0,0,0,0,0,0,0,0,1,117,25,-999,0,0,0,0,0,0,0,0,0,0,0,0,0,0
1769081548547,1769081548547,0,0,0,0,0,0,0,0,0,0,0,0,0,0,0,0,0,0,0,0,0,0,0,0,0,0,0,0,0,0,0,0,0,0,0,0,1,-138,-113,-143,0,0
1769081548554,1769081548554,0,0,0,0,0,0,0,0,0,0,0,0,0,0,0,0,0,0,0,0,0,0,0,0,0,0,0,0,0,0,0,0,0,0,0,0,0,0,0,0,1,20055
1769081548566,1769081548566,0,0,0,0,0,1,72,50,1,97,99,1,346946,10204,16609,0,0,0,0,0,0,0,0,0,1,121,42,-988,0,0,0,0,0,0,0,0,0,0,0,0,0,0
1769081548567,1769081548567,0,0,0,0,0,0,0,0,0,0,0,0,0,0,0,0,0,0,0,0,0,0,0,0,0,0,0,0,0,0,0,0,1,-196,878,4054,0,0,0,0,0,0
1769081548576,1769081548576,0,0,0,0,0,0,0,0,0,0,0,0,0,0,0,0,0,0,0,0,0,0,0,0,0,0,0,0,0,0,0,0,0,0,0,0,0,0,0,0,1,20056
1769081548586,1769081548586,0,0,0,0,0,0,0,0,0,0,0,0,0,0,0,0,0,0,0,0,0,0,0,0,0,0,0,0,0,0,0,0,0,0,0,0,1,-97,-106,-137,0,0
1769081548599,1769081548599,0,0,0,0,0,0,0,0,0,0,0,0,0,0,0,0,0,0,0,0,0,0,0,0,0,0,0,0,0,0,0,0,0,0,0,0,0,0,0,0,1,20057
1769081548604,1769081548604,0,0,0,0,0,1,72,50,1,97,99,1,346902,10183,16585,0,0,0,0,0,0,0,0,0,1,104,36,-972,0,0,0,0,0,0,0,0,0,0,0,0,0,0
1769081548606,1769081548606,0,0,0,0,0,0,0,0,0,0,0,0,0,0,0,0,0,0,0,0,0,0,0,0,0,0,0,0,0,0,0,0,1,-89,779,3999,0,0,0,0,0,0
1769081548624,1769081548624,0,0,0,0,0,0,0,0,0,0,0,0,0,0,0,0,0,0,0,0,0,0,0,0,0,0,0,0,0,0,0,0,0,0,0,0,0,0,0,0,1,20058
1769081548626,1769081548626,0,0,0,0,0,0,0,0,0,0,0,0,0,0,0,0,0,0,0,0,0,0,0,0,0,0,0,0,0,0,0,0,0,0,0,0,1,-191,-130,-154,0,0
1769081548642,1769081548642,0,0,0,0,0,1,72,50,1,97,99,1,346872,10180,16576,0,0,0,0,0,0,0,0,0,1,129,37,-968,0,0,0,0,0,0,0,0,0,0,0,0,0,0
1769081548646,1769081548646,0,0,0,0,0,0,0,0,0,0,0,0,0,0,0,0,0,0,0,0,0,0,0,0,0,0,0,0,0,0,0,0,1,-118,782,3961,0,0,0,0,0,0
1769081548666,1769081548666,0,0,0,0,0,0,0,0,0,0,0,0,0,0,0,0,0,0,0,0,0,0,0,0,0,0,0,0,0,0,0,0,0,0,0,0,1,-159,-71,-163,0,0
1769081548680,1769081548680,0,0,0,0,0,1,72,50,1,97,99,1,346849,10163,16558,0,0,0,0,0,0,0,0,0,1,144,26,-976,0,0,0,0,0,0,0,0,0,0,0,0,0,0
1769081548686,1769081548686,0,0,0,0,0,0,0,0,0,0,0,0,0,0,0,0,0,0,0,0,0,0,0,0,0,0,0,0,0,0,0,0,1,-7,751,3985,0,0,0,0,0,0
1769081548706,1769081548706,0,0,0,0,0,0,0,0,0,0,0,0,0,0,0,0,0,0,0,0,0,0,0,0,0,0,0,0,0,0,0,0,0,0,0,0,1,-163,-55,-142,0,0
1769081548718,1769081548718,0,0,0,0,0,1,72,50,1,97,99,1,346838,10164,16546,0,0,0,0,0,0,0,0,0,1,160,28,-974,0,0,0,0,0,0,0,0,0,0,0,0,0,0
1769081548726,1769081548726,0,0,0,0,0,0,0,0,0,0,0,0,0,0,0,0,0,0,0,0,0,0,0,0,0,0,0,0,0,0,0,0,1,-4,683,4023,0,0,0,0,0,0
1769081548746,1769081548746,0,0,0,0,0,0,0,0,0,0,0,0,0,0,0,0,0,0,0,0,0,0,0,0,0,0,0,0,0,0,0,0,0,0,0,0,1,-157,-6,-180,0,0
1769081548756,1769081548756,0,0,0,0,0,1,72,50,1,97,99,1,346849,10169,16555,0,0,0,0,0,0,0,0,0,1,146,29,-1004,0,0,0,0,0,0,0,0,0,0,0,0,0,0
1769081548766,1769081548766,0,0,0,0,0,0,0,0,0,0,0,0,0,0,0,0,0,0,0,0,0,0,0,0,0,0,0,0,0,0,0,0,1,2,801,4093,0,0,0,0,0,0
1769081548785,1769081548785,0,0,0,0,0,0,0,0,0,0,0,0,0,0,0,0,0,0,0,0,0,0,0,0,0,0,0,0,0,0,0,0,0,0,0,0,1,-9,55,-185,0,0
1769081548794,1769081548794,0,0,0,0,0,1,72,50,1,97,99,1,346875,10163,16547,0,0,0,0,0,0,0,0,0,1,162,29,-990,0,0,0,0,0,0,0,0,0,0,0,0,0,0
1769081548805,1769081548805,0,0,0,0,0,0,0,0,0,0,0,0,0,0,0,0,0,0,0,0,0,0,0,0,0,0,0,0,0,0,0,0,1,-11,726,4147,0,0,0,0,0,0
1769081548825,1769081548825,0,0,0,0,0,0,0,0,0,0,0,0,0,0,0,0,0,0,0,0,0,0,0,0,0,0,0,0,0,0,0,0,0,0,0,0,1,-93,79,-155,0,0
1769081548832,1769081548832,0,0,0,0,0,1,72,50,1,97,99,1,346893,10167,16558,0,0,0,0,0,0,0,0,0,1,153,20,-1000,0,0,0,0,0,0,0,0,0,0,0,0,0,0
1769081548845,1769081548845,0,0,0,0,0,0,0,0,0,0,0,0,0,0,0,0,0,0,0,0,0,0,0,0,0,0,0,0,0,0,0,0,1,-155,776,4174,0,0,0,0,0,0
1769081548865,1769081548865,0,0,0,0,0,0,0,0,0,0,0,0,0,0,0,0,0,0,0,0,0,0,0,0,0,0,0,0,0,0,0,0,0,0,0,0,1,-7,138,-133,0,0
1769081548870,1769081548870,0,0,0,0,0,1,72,50,1,97,99,1,346896,10172,16556,0,0,0,0,0,0,0,0,0,1,153,26,-991,0,0,0,0,0,0,0,0,0,0,0,0,0,0
1769081548885,1769081548885,0,0,0,0,0,0,0,0,0,0,0,0,0,0,0,0,0,0,0,0,0,0,0,0,0,0,0,0,0,0,0,0,1,-211,801,4117,0,0,0,0,0,0
1769081548905,1769081548905,0,0,0,0,0,0,0,0,0,0,0,0,0,0,0,0,0,0,0,0,0,0,0,0,0,0,0,0,0,0,0,0,0,0,0,0,1,59,117,-113,0,0
1769081548908,1769081548908,0,0,0,0,0,1,72,50,1,97,99,1,346921,10168,16557,0,0,0,0,0,0,0,0,0,1,136,14,-997,0,0,0,0,0,0,0,0,0,0,0,0,0,0
1769081548925,1769081548925,0,0,0,0,0,0,0,0,0,0,0,0,0,0,0,0,0,0,0,0,0,0,0,0,0,0,0,0,0,0,0,0,1,-203,811,4171,0,0,0,0,0,0
1769081548945,1769081548945,0,0,0,0,0,0,0,0,0,0,0,0,0,0,0,0,0,0,0,0,0,0,0,0,0,0,0,0,0,0,0,0,0,0,0,0,1,-30,47,-90,0,0
1769081548946,1769081548946,0,0,0,0,0,1,72,50,1,97,99,1,346851,10171,16557,0,0,0,0,0,0,0,0,0,1,147,24,-984,0,0,0,0,0,0,0,0,0,0,0,0,0,0
1769081548964,1769081548964,0,0,0,0,0,0,0,0,0,0,0,0,0,0,0,0,0,0,0,0,0,0,0,0,0,0,0,0,0,0,0,0,1,-185,787,4048,0,0,0,0,0,0
1769081548984,1769081548984,0,0,0,0,0,1,72,50,1,97,99,1,346711,10171,16556,0,0,0,0,0,0,0,0,0,1,147,34,-994,0,0,0,0,0,0,0,0,1,-20,22,-46,0,0
1769081549004,1769081549004,0,0,0,0,0,0,0,0,0,0,0,0,0,0,0,0,0,0,0,0,0,0,0,0,0,0,0,0,0,0,0,0,1,-173,651,4078,0,0,0,0,0,0
1769081549005,1769081549005,0,0,0,0,0,0,0,0,0,0,0,0,0,0,0,0,0,0,0,0,0,0,0,0,0,0,0,0,0,0,0,0,0,0,0,0,0,0,0,0,1,20059
1769081549016,1769081549016,0,0,0,0,0,0,0,0,0,0,0,0,0,0,0,1,999,99903,0,0,0,0,0,0,0,0,0,0,0,0,0,0,0,0,0,0,0,0,0,0,0,0
1769081549024,1769081549024,0,0,0,0,0,1,72,50,1,97,99,1,346501,10170,16550,0,0,0,0,0,0,0,1,3,1,149,30,-981,0,0,0,0,0,0,0,0,1,-40,1,-1,0,0
1769081549027,1769081549027,0,0,0,0,0,0,0,0,0,0,0,0,0,0,0,0,0,0,0,0,0,0,0,0,0,0,0,0,0,0,0,0,0,0,0,0,0,0,0,0,1,20060
1769081549044,1769081549044,0,0,0,0,0,0,0,0,0,0,0,0,0,0,0,0,0,0,0,0,0,0,0,0,0,0,0,0,0,0,0,0,1,-161,647,4081,0,0,0,0,0,0
1769081549047,1769081549047,0,0,0,0,0,0,0,0,0,0,0,0,0,0,0,0,0,0,1,30.46965980529785,1,27.0733585357666,0,0,0,0,0,0,0,0,0,0,0,0,0,0,0,0,0,0,0,0
1769081549049,1769081549049,1,-12,3835,300,58.400000000000006,0,0,0,0,0,0,0,0,0,0,0,0,0,0,0,0,0,0,0,0,0,0,0,0,0,0,0,0,0,0,0,0,0,0,0,1,20061
1769081549064,1769081549064,0,0,0,0,0,1,72,50,1,97,99,1,346260,10146,16539,0,0,0,0,0,0,0,0,0,1,157,25,-975,0,0,0,0,0,0,0,0,1,0,-3,8,0,0
1769081549074,1769081549074,0,0,0,0,0,0,0,0,0,0,0,0,0,0,0,0,0,0,0,0,0,0,0,0,0,0,0,0,0,0,0,0,0,0,0,0,0,0,0,0,1,20062
1769081549084,1769081549084,0,0,0,0,0,0,0,0,0,0,0,0,0,0,0,0,0,0,0,0,0,0,0,0,0,0,0,0,0,0,0,0,1,-175,582,3987,0,0,0,0,0,0
1769081549087,1769081549087,0,0,0,0,0,0,0,0,0,0,0,0,0,0,0,0,0,0,0,0,0,0,0,0,0,0,0,0,0,0,0,0,0,0,0,0,0,0,0,0,1,20063
1769081549104,1769081549104,0,0,0,0,0,1,72,50,1,97,99,1,345992,10151,16530,0,0,0,0,0,0,0,0,0,1,150,22,-968,0,0,0,0,0,0,0,0,1,-20,-25,5,0,0
1769081549109,1769081549109,0,0,0,0,0,0,0,0,0,0,0,0,0,0,0,0,0,0,0,0,0,0,0,0,0,0,0,0,0,0,0,0,0,0,0,0,0,0,0,0,1,20064
1769081549124,1769081549124,0,0,0,0,0,0,0,0,0,0,0,0,0,0,0,0,0,0,0,0,0,0,0,0,0,0,0,0,0,0,0,0,1,-193,620,3997,0,0,0,0,0,0
1769081549140,1769081549140,0,0,0,0,0,0,0,0,0,0,0,0,0,0,0,0,0,0,0,0,0,0,0,0,0,0,0,0,0,0,0,0,0,0,0,0,0,0,0,0,1,20065
1769081549144,1769081549144,0,0,0,0,0,1,72,50,1,97,99,1,345757,10150,16531,0,0,0,0,0,0,0,0,0,1,143,44,-970,0,0,0,0,0,0,0,0,1,-20,-31,16,0,0
1769081549158,1769081549158,0,0,0,0,0,0,0,0,0,0,0,0,0,0,0,0,0,0,0,0,0,0,0,0,0,0,0,0,0,0,0,0,0,0,0,0,0,0,0,0,1,20066
1769081549163,1769081549163,0,0,0,0,0,0,0,0,0,0,0,0,0,0,0,0,0,0,0,0,0,0,0,0,0,0,0,0,0,0,0,0,1,-160,699,3980,0,0,0,0,0,0
1769081549177,1769081549177,0,0,0,0,0,0,0,0,0,0,0,0,0,0,0,0,0,0,0,0,0,0,0,0,0,0,0,0,0,0,0,0,0,0,0,0,0,0,0,0,1,20067
1769081549183,1769081549183,0,0,0,0,0,0,0,0,0,0,0,0,0,0,0,0,0,0,0,0,0,0,0,0,0,0,0,0,0,0,0,0,0,0,0,0,1,-9,-23,3,0,0
1769081549184,1769081549184,0,0,0,0,0,1,72,50,1,97,99,1,345566,10156,16536,0,0,0,0,0,0,0,0,0,1,153,38,-973,0,0,0,0,0,0,0,0,0,0,0,0,0,0
1769081549200,1769081549200,0,0,0,0,0,0,0,0,0,0,0,0,0,0,0,0,0,0,0,0,0,0,0,0,0,0,0,0,0,0,0,0,0,0,0,0,0,0,0,0,1,20068
1769081549203,1769081549203,0,0,0,0,0,0,0,0,0,0,0,0,0,0,0,0,0,0,0,0,0,0,0,0,0,0,0,0,0,0,0,0,1,-154,733,3991,0,0,0,0,0,0
1769081549223,1769081549223,0,0,0,0,0,0,0,0,0,0,0,0,0,0,0,0,0,0,0,0,0,0,0,0,0,0,0,0,0,0,0,0,0,0,0,0,1,11,6,-8,0,0
1769081549224,1769081549224,0,0,0,0,0,1,72,50,1,97,99,1,345372,10156,16537,0,0,0,0,0,0,0,0,0,1,155,29,-971,0,0,0,0,0,0,0,0,0,0,0,0,0,0
1769081549231,1769081549231,0,0,0,0,0,0,0,0,0,0,0,0,0,0,0,0,0,0,0,0,0,0,0,0,0,0,0,0,0,0,0,0,0,0,0,0,0,0,0,0,1,20069
1769081549237,1769081549237,0,0,0,0,0,0,0,0,0,0,0,0,0,0,0,0,0,0,0,0,0,0,0,0,0,0,0,0,0,0,0,0,0,0,0,0,0,0,0,0,1,20070
1769081549243,1769081549243,0,0,0,0,0,0,0,0,0,0,0,0,0,0,0,0,0,0,0,0,0,0,0,0,0,0,0,0,0,0,0,0,1,-158,773,4096,0,0,0,0,0,0
1769081549260,1769081549260,0,0,0,0,0,0,0,0,0,0,0,0,0,0,0,0,0,0,0,0,0,0,0,0,0,0,0,0,0,0,0,0,0,0,0,0,0,0,0,0,1,20071
1769081549263,1769081549263,0,0,0,0,0,0,0,0,0,0,0,0,0,0,0,0,0,0,0,0,0,0,0,0,0,0,0,0,0,0,0,0,0,0,0,0,1,29,41,3,0,0
1769081549264,1769081549264,0,0,0,0,0,1,72,50,1,97,99,1,345177,10156,16534,0,0,0,0,0,0,0,0,0,1,151,37,-974,0,0,0,0,0,0,0,0,0,0,0,0,0,0
1769081549282,1769081549282,0,0,0,0,0,0,0,0,0,0,0,0,0,0,0,0,0,0,0,0,0,0,0,0,0,0,0,0,0,0,0,0,0,0,0,0,0,0,0,0,1,20072
1769081549283,1769081549283,0,0,0,0,0,0,0,0,0,0,0,0,0,0,0,0,0,0,0,0,0,0,0,0,0,0,0,0,0,0,0,0,1,-131,738,4082,0,0,0,0,0,0
1769081549303,1769081549303,0,0,0,0,0,0,0,0,0,0,0,0,0,0,0,0,0,0,0,0,0,0,0,0,0,0,0,0,0,0,0,0,0,0,0,0,1,-1,56,-13,0,0
1769081549304,1769081549304,0,0,0,0,0,1,72,50,1,97,99,1,344987,10166,16547,0,0,0,0,0,0,0,0,0,1,161,37,-980,0,0,0,0,0,0,0,0,0,0,0,0,1,20073
1769081549323,1769081549323,0,0,0,0,0,0,0,0,0,0,0,0,0,0,0,0,0,0,0,0,0,0,0,0,0,0,0,0,0,0,0,0,1,-132,781,4095,0,0,0,0,0,0
1769081549328,1769081549328,0,0,0,0,0,0,0,0,0,0,0,0,0,0,0,0,0,0,0,0,0,0,0,0,0,0,0,0,0,0,0,0,0,0,0,0,0,0,0,0,1,20074
1769081549342,1769081549342,0,0,0,0,0,0,0,0,0,0,0,0,0,0,0,0,0,0,0,0,0,0,0,0,0,0,0,0,0,0,0,0,0,0,0,0,1,42,59,5,0,0
1769081549344,1769081549344,0,0,0,0,0,1,72,50,1,97,99,1,344828,10170,16551,0,0,0,0,0,0,0,0,0,1,171,31,-981,0,0,0,0,0,0,0,0,0,0,0,0,0,0
1769081549348,1769081549348,0,0,0,0,0,0,0,0,0,0,0,0,0,0,0,0,0,0,0,0,0,0,0,0,0,0,0,0,0,0,0,0,0,0,0,0,0,0,0,0,1,20075
1769081549362,1769081549362,0,0,0,0,0,0,0,0,0,0,0,0,0,0,0,0,0,0,0,0,0,0,0,0,0,0,0,0,0,0,0,0,1,-127,704,4082,0,0,0,0,0,0
1769081549365,1769081549365,0,0,0,0,0,0,0,0,0,0,0,0,0,0,0,0,0,0,0,0,0,0,0,0,0,0,0,0,0,0,0,0,0,0,0,0,0,0,0,0,1,20076
1769081549382,1769081549382,0,0,0,0,0,0,0,0,0,0,0,0,0,0,0,0,0,0,0,0,0,0,0,0,0,0,0,0,0,0,0,0,0,0,0,0,1,11,32,25,0,0
1769081549384,1769081549384,0,0,0,0,0,1,72,50,1,97,99,1,344678,10170,16551,0,0,0,0,0,0,0,0,0,1,174,28,-989,0,0,0,0,0,0,0,0,0,0,0,0,0,0
1769081549387,1769081549387,0,0,0,0,0,0,0,0,0,0,0,0,0,0,0,0,0,0,0,0,0,0,0,0,0,0,0,0,0,0,0,0,0,0,0,0,0,0,0,0,1,20077
1769081549402,1769081549402,0,0,0,0,0,0,0,0,0,0,0,0,0,0,0,0,0,0,0,0,0,0,0,0,0,0,0,0,0,0,0,0,1,-111,709,4080,0,0,0,0,0,0
1769081549410,1769081549410,0,0,0,0,0,0,0,0,0,0,0,0,0,0,0,0,0,0,0,0,0,0,0,0,0,0,0,0,0,0,0,0,0,0,0,0,0,0,0,0,1,20078
1769081549422,1769081549422,0,0,0,0,0,0,0,0,0,0,0,0,0,0,0,0,0,0,0,0,0,0,0,0,0,0,0,0,0,0,0,0,0,0,0,0,1,38,22,23,0,0
1769081549424,1769081549424,0,0,0,0,0,1,72,50,1,97,99,1,344548,10173,16555,0,0,0,0,0,0,0,0,0,1,175,30,-979,0,0,0,0,0,0,0,0,0,0,0,0,0,0
1769081549432,1769081549432,0,0,0,0,0,0,0,0,0,0,0,0,0,0,0,0,0,0,0,0,0,0,0,0,0,0,0,0,0,0,0,0,0,0,0,0,0,0,0,0,1,20079
1769081549442,1769081549442,0,0,0,0,0,0,0,0,0,0,0,0,0,0,0,0,0,0,0,0,0,0,0,0,0,0,0,0,0,0,0,0,1,-123,726,4055,0,0,0,0,0,0
1769081549453,1769081549453,0,0,0,0,0,0,0,0,0,0,0,0,0,0,0,0,0,0,0,0,0,0,0,0,0,0,0,0,0,0,0,0,0,0,0,0,0,0,0,0,1,20080
1769081549462,1769081549462,0,0,0,0,0,0,0,0,0,0,0,0,0,0,0,0,0,0,0,0,0,0,0,0,0,0,0,0,0,0,0,0,0,0,0,0,1,27,18,-3,0,0
1769081549464,1769081549464,0,0,0,0,0,1,72,50,1,97,99,1,344403,10163,16545,0,0,0,0,0,0,0,0,0,1,171,31,-986,0,0,0,0,0,0,0,0,0,0,0,0,0,0
1769081549475,1769081549475,0,0,0,0,0,0,0,0,0,0,0,0,0,0,0,0,0,0,0,0,0,0,0,0,0,0,0,0,0,0,0,0,0,0,0,0,0,0,0,0,1,20081
1769081549482,1769081549482,0,0,0,0,0,0,0,0,0,0,0,0,0,0,0,0,0,0,0,0,0,0,0,0,0,0,0,0,0,0,0,0,1,-135,727,4064,0,0,0,0,0,0
1769081549491,1769081549491,0,0,0,0,0,0,0,0,0,0,0,0,0,0,0,0,0,0,0,0,0,0,0,0,0,0,0,0,0,0,0,0,0,0,0,0,0,0,0,0,1,20082
1769081549502,1769081549502,0,0,0,0,0,0,0,0,0,0,0,0,0,0,0,0,0,0,0,0,0,0,0,0,0,0,0,0,0,0,0,0,0,0,0,0,1,29,16,-18,0,0
1769081549504,1769081549504,0,0,0,0,0,1,72,50,1,97,99,1,344303,10168,16547,0,0,0,0,0,0,0,0,0,1,182,19,-987,0,0,0,0,0,0,0,0,0,0,0,0,0,0
1769081549515,1769081549515,0,0,0,0,0,0,0,0,0,0,0,0,0,0,0,0,0,0,0,0,0,0,0,0,0,0,0,0,0,0,0,0,0,0,0,0,0,0,0,0,1,20083
1769081549522,1769081549522,0,0,0,0,0,0,0,0,0,0,0,0,0,0,0,0,0,0,0,0,0,0,0,0,0,0,0,0,0,0,0,0,1,-153,724,4041,0,0,0,0,0,0
1769081549538,1769081549538,0,0,0,0,0,0,0,0,0,0,0,0,0,0,0,0,0,0,0,0,0,0,0,0,0,0,0,0,0,0,0,0,0,0,0,0,0,0,0,0,1,20084
1769081549544,1769081549544,0,0,0,0,0,1,72,50,1,97,99,1,344205,10175,16555,0,0,0,0,0,0,0,0,0,1,196,25,-971,0,0,0,0,0,0,0,0,0,0,0,0,0,0
1769081549559,1769081549559,0,0,0,0,0,0,0,0,0,0,0,0,0,0,0,0,0,0,0,0,0,0,0,0,0,0,0,0,0,0,0,0,0,0,0,0,0,0,0,0,1,20085
1769081549574,1769081549574,0,0,0,0,0,0,0,0,0,0,0,0,0,0,0,0,0,0,0,0,0,0,0,0,0,0,0,0,0,0,0,0,0,0,0,0,0,0,0,0,1,20086
1769081549584,1769081549584,0,0,0,0,0,1,72,50,1,97,99,1,344094,10184,16567,0,0,0,0,0,0,0,0,0,1,170,18,-987,0,0,0,0,0,0,0,0,0,0,0,0,0,0
1769081549596,1769081549596,0,0,0,0,0,0,0,0,0,0,0,0,0,0,0,0,0,0,0,0,0,0,0,0,0,0,0,0,0,0,0,0,0,0,0,0,0,0,0,0,1,20087
1769081549624,1769081549624,0,0,0,0,0,1,72,50,1,97,99,1,344019,10187,16568,0,0,0,0,0,0,0,0,0,1,165,17,-980,0,0,0,0,0,0,0,0,0,0,0,0,0,0
1769081549664,1769081549664,0,0,0,0,0,1,72,50,1,97,99,1,343930,10201,16584,0,0,0,0,0,0,0,0,0,1,154,22,-1006,0,0,0,0,0,0,0,0,0,0,0,0,0,0
1769081549704,1769081549704,0,0,0,0,0,1,72,50,1,97,99,1,343860,10205,16590,0,0,0,0,0,0,0,0,0,1,163,34,-1004,0,0,0,0,0,0,0,0,0,0,0,0,0,0
1769081549744,1769081549744,0,0,0,0,0,1,72,50,1,97,99,1,343796,10220,16603,0,0,0,0,0,0,0,0,0,1,168,50,-1001,0,0,0,0,0,0,0,0,0,0,0,0,0,0
1769081549784,1769081549784,0,0,0,0,0,1,71,50,1,97,99,1,343730,10232,16615,0,0,0,0,0,0,0,0,0,1,179,50,-999,0,0,0,0,0,0,0,0,0,0,0,0,0,0
1769081549824,1769081549824,0,0,0,0,0,1,71,50,1,97,99,1,343603,10250,16632,0,0,0,0,0,0,0,0,0,1,185,28,-987,0,0,0,0,0,0,0,0,0,0,0,0,0,0
1769081549864,1769081549864,0,0,0,0,0,1,71,50,1,97,99,1,343345,10262,16639,0,0,0,0,0,0,0,0,0,1,174,24,-998,0,0,0,0,0,0,0,0,0,0,0,0,0,0
1769081549904,1769081549904,0,0,0,0,0,1,71,50,1,97,99,1,343019,10293,16669,0,0,0,0,0,0,0,0,0,1,188,20,-982,0,0,0,0,0,0,0,0,0,0,0,0,0,0
1769081549944,1769081549944,0,0,0,0,0,1,71,50,1,97,99,1,342689,10328,16699,0,0,0,0,0,0,0,0,0,1,171,18,-998,0,0,0,0,0,0,0,0,0,0,0,0,0,0
1769081549984,1769081549984,0,0,0,0,0,1,71,50,1,97,99,1,342345,10336,16704,0,0,0,0,0,0,0,0,0,1,186,9,-982,0,0,0,0,0,0,0,0,0,0,0,0,0,0
1769081550046,1769081550046,0,0,0,0,0,0,0,0,0,0,0,0,0,0,0,0,0,0,1,30.452356338500977,1,26.994531631469727,0,0,0,0,0,0,0,0,0,0,0,0,0,0,0,0,0,0,0,0
1769081550048,1769081550048,1,-12,3835,300,58.400000000000006,0,0,0,0,0,0,0,0,0,0,0,0,0,0,0,0,0,0,0,0,0,0,0,0,0,0,0,0,0,0,0,0,0,0,0,0,0
1769081549541,1769081549541,0,0,0,0,0,0,0,0,0,0,0,0,0,0,0,0,0,0,0,0,0,0,0,0,0,0,0,0,0,0,0,0,0,0,0,0,1,39,-7,-3,0,0
1769081549561,1769081549561,0,0,0,0,0,0,0,0,0,0,0,0,0,0,0,0,0,0,0,0,0,0,0,0,0,0,0,0,0,0,0,0,1,-132,727,4000,0,0,0,0,0,0
1769081549581,1769081549581,0,0,0,0,0,0,0,0,0,0,0,0,0,0,0,0,0,0,0,0,0,0,0,0,0,0,0,0,0,0,0,0,0,0,0,0,1,32,-21,9,0,0
1769081549601,1769081549601,0,0,0,0,0,0,0,0,0,0,0,0,0,0,0,0,0,0,0,0,0,0,0,0,0,0,0,0,0,0,0,0,1,-120,769,3974,0,0,0,0,0,0
1769081549621,1769081549621,0,0,0,0,0,0,0,0,0,0,0,0,0,0,0,0,0,0,0,0,0,0,0,0,0,0,0,0,0,0,0,0,0,0,0,0,1,38,-16,6,0,0
1769081549641,1769081549641,0,0,0,0,0,0,0,0,0,0,0,0,0,0,0,0,0,0,0,0,0,0,0,0,0,0,0,0,0,0,0,0,1,-156,710,3983,0,0,0,0,0,0
1769081549656,1769081549656,0,0,0,0,0,0,0,0,0,0,0,0,0,0,0,1,999,99903,0,0,0,0,0,0,0,0,0,0,0,0,0,0,0,0,0,0,0,0,0,0,0,0
1769081549661,1769081549661,0,0,0,0,0,0,0,0,0,0,0,0,0,0,0,0,0,0,0,0,0,0,0,0,0,0,0,0,0,0,0,0,0,0,0,0,1,15,-15,12,0,0
1769081549681,1769081549681,0,0,0,0,0,0,0,0,0,0,0,0,0,0,0,0,0,0,0,0,0,0,0,0,0,0,0,0,0,0,0,0,1,-194,715,3987,0,0,0,0,0,0
1769081549701,1769081549701,0,0,0,0,0,0,0,0,0,0,0,0,0,0,0,0,0,0,0,0,0,0,0,0,0,0,0,0,0,0,0,0,0,0,0,0,1,35,3,11,0,0
1769081549720,1769081549720,0,0,0,0,0,0,0,0,0,0,0,0,0,0,0,0,0,0,0,0,0,0,0,0,0,0,0,0,0,0,0,0,1,-155,746,3976,0,0,0,0,0,0
1769081549740,1769081549740,0,0,0,0,0,0,0,0,0,0,0,0,0,0,0,0,0,0,0,0,0,0,0,0,0,0,0,0,0,0,0,0,0,0,0,0,1,-1,-10,0,0,0
1769081549760,1769081549760,0,0,0,0,0,0,0,0,0,0,0,0,0,0,0,0,0,0,0,0,0,0,0,0,0,0,0,0,0,0,0,0,1,-143,765,3950,0,0,0,0,0,0
1769081549780,1769081549780,0,0,0,0,0,0,0,0,0,0,0,0,0,0,0,0,0,0,0,0,0,0,0,0,0,0,0,0,0,0,0,0,0,0,0,0,1,2,2,4,0,0
1769081549800,1769081549800,0,0,0,0,0,0,0,0,0,0,0,0,0,0,0,0,0,0,0,0,0,0,0,0,0,0,0,0,0,0,0,0,1,-201,754,4031,0,0,0,0,0,0
1769081549820,1769081549820,0,0,0,0,0,0,0,0,0,0,0,0,0,0,0,0,0,0,0,0,0,0,0,0,0,0,0,0,0,0,0,0,0,0,0,0,1,54,37,13,0,0
1769081549840,1769081549840,0,0,0,0,0,0,0,0,0,0,0,0,0,0,0,0,0,0,0,0,0,0,0,0,0,0,0,0,0,0,0,0,1,-158,806,3998,0,0,0,0,0,0
1769081549860,1769081549860,0,0,0,0,0,0,0,0,0,0,0,0,0,0,0,0,0,0,0,0,0,0,0,0,0,0,0,0,0,0,0,0,0,0,0,0,1,45,10,16,0,0
1769081549880,1769081549880,0,0,0,0,0,0,0,0,0,0,0,0,0,0,0,0,0,0,0,0,0,0,0,0,0,0,0,0,0,0,0,0,1,-152,788,4048,0,0,0,0,0,0
1769081549899,1769081549899,0,0,0,0,0,0,0,0,0,0,0,0,0,0,0,0,0,0,0,0,0,0,0,0,0,0,0,0,0,0,0,0,0,0,0,0,1,12,14,13,0,0
1769081549919,1769081549919,0,0,0,0,0,0,0,0,0,0,0,0,0,0,0,0,0,0,0,0,0,0,0,0,0,0,0,0,0,0,0,0,1,-176,829,4030,0,0,0,0,0,0
1769081549939,1769081549939,0,0,0,0,0,0,0,0,0,0,0,0,0,0,0,0,0,0,0,0,0,0,0,0,0,0,0,0,0,0,0,0,0,0,0,0,1,22,17,20,0,0
1769081549959,1769081549959,0,0,0,0,0,0,0,0,0,0,0,0,0,0,0,0,0,0,0,0,0,0,0,0,0,0,0,0,0,0,0,0,1,-162,813,4017,0,0,0,0,0,0
1769081549979,1769081549979,0,0,0,0,0,0,0,0,0,0,0,0,0,0,0,0,0,0,0,0,0,0,0,0,0,0,0,0,0,0,0,0,0,0,0,0,1,2,-2,30,0,0
1769081549999,1769081549999,0,0,0,0,0,0,0,0,0,0,0,0,0,0,0,0,0,0,0,0,0,0,0,0,0,0,0,0,0,0,0,0,1,-148,832,4042,0,0,0,0,0,0
1769081550018,1769081550018,0,0,0,0,0,0,0,0,0,0,0,0,0,0,0,0,0,0,0,0,0,0,0,0,0,0,0,0,0,0,0,0,0,0,0,0,0,0,0,0,1,20088
1769081550019,1769081550019,0,0,0,0,0,0,0,0,0,0,0,0,0,0,0,0,0,0,0,0,0,0,0,0,0,0,0,0,0,0,0,0,0,0,0,0,1,12,-16,17,0,0
1769081550024,1769081550024,0,0,0,0,0,1,71,50,1,97,99,1,341996,10303,16673,0,0,0,0,0,0,0,1,3,1,188,30,-971,0,0,0,0,0,0,0,0,0,0,0,0,0,0
1769081550039,1769081550039,0,0,0,0,0,0,0,0,0,0,0,0,0,0,0,0,0,0,0,0,0,0,0,0,0,0,0,0,0,0,0,0,1,-121,869,4010,0,0,0,0,1,20089
1769081550056,1769081550056,0,0,0,0,0,0,0,0,0,0,0,0,0,0,0,0,0,0,0,0,0,0,0,0,0,0,0,0,0,0,0,0,0,0,0,0,0,0,0,0,1,20090
1769081550059,1769081550059,0,0,0,0,0,0,0,0,0,0,0,0,0,0,0,0,0,0,0,0,0,0,0,0,0,0,0,0,0,0,0,0,0,0,0,0,1,27,-42,-10,0,0
1769081550064,1769081550064,0,0,0,0,0,1,71,50,1,97,99,1,341680,10300,16656,0,0,0,0,0,0,0,0,0,1,217,25,-953,0,0,0,0,0,0,0,0,0,0,0,0,0,0
1769081550076,1769081550076,0,0,0,0,0,0,0,0,0,0,0,0,0,0,0,0,0,0,0,0,0,0,0,0,0,0,0,0,0,0,0,0,0,0,0,0,0,0,0,0,1,20091
1769081550078,1769081550078,0,0,0,0,0,0,0,0,0,0,0,0,0,0,0,0,0,0,0,0,0,0,0,0,0,0,0,0,0,0,0,0,1,-126,869,4011,0,0,0,0,0,0
1769081550098,1769081550098,0,0,0,0,0,0,0,0,0,0,0,0,0,0,0,0,0,0,0,0,0,0,0,0,0,0,0,0,0,0,0,0,0,0,0,0,1,1,-62,3,0,0
1769081550101,1769081550101,0,0,0,0,0,0,0,0,0,0,0,0,0,0,0,0,0,0,0,0,0,0,0,0,0,0,0,0,0,0,0,0,0,0,0,0,0,0,0,0,1,20092
1769081550104,1769081550104,0,0,0,0,0,1,71,50,1,97,99,1,341430,10340,16703,0,0,0,0,0,0,0,0,0,1,196,17,-984,0,0,0,0,0,0,0,0,0,0,0,0,0,0
1769081550118,1769081550118,0,0,0,0,0,0,0,0,0,0,0,0,0,0,0,0,0,0,0,0,0,0,0,0,0,0,0,0,0,0,0,0,1,-90,793,4025,0,0,0,0,0,0
1769081550123,1769081550123,0,0,0,0,0,0,0,0,0,0,0,0,0,0,0,0,0,0,0,0,0,0,0,0,0,0,0,0,0,0,0,0,0,0,0,0,0,0,0,0,1,20093
1769081550138,1769081550138,0,0,0,0,0,0,0,0,0,0,0,0,0,0,0,0,0,0,0,0,0,0,0,0,0,0,0,0,0,0,0,0,0,0,0,0,1,-39,-61,14,0,0
1769081550144,1769081550144,0,0,0,0,0,1,71,50,1,97,99,1,341238,10370,16731,0,0,0,0,0,0,0,0,0,1,194,30,-994,0,0,0,0,0,0,0,0,0,0,0,0,0,0
1769081550145,1769081550145,0,0,0,0,0,0,0,0,0,0,0,0,0,0,0,0,0,0,0,0,0,0,0,0,0,0,0,0,0,0,0,0,0,0,0,0,0,0,0,0,1,20094
1769081550158,1769081550158,0,0,0,0,0,0,0,0,0,0,0,0,0,0,0,0,0,0,0,0,0,0,0,0,0,0,0,0,0,0,0,0,1,-117,793,4055,0,0,0,0,0,0
1769081550167,1769081550167,0,0,0,0,0,0,0,0,0,0,0,0,0,0,0,0,0,0,0,0,0,0,0,0,0,0,0,0,0,0,0,0,0,0,0,0,0,0,0,0,1,20095
1769081550178,1769081550178,0,0,0,0,0,0,0,0,0,0,0,0,0,0,0,0,0,0,0,0,0,0,0,0,0,0,0,0,0,0,0,0,0,0,0,0,1,8,-15,8,0,0
1769081550184,1769081550184,0,0,0,0,0,1,71,50,1,97,99,1,341078,10416,16779,0,0,0,0,0,0,0,0,0,1,239,33,-987,0,0,0,0,0,0,0,0,0,0,0,0,0,0
1769081550196,1769081550196,0,0,0,0,0,0,0,0,0,0,0,0,0,0,0,0,0,0,0,0,0,0,0,0,0,0,0,0,0,0,0,0,0,0,0,0,0,0,0,0,1,20096
1769081550198,1769081550198,0,0,0,0,0,0,0,0,0,0,0,0,0,0,0,0,0,0,0,0,0,0,0,0,0,0,0,0,0,0,0,0,1,-153,739,4117,0,0,0,0,0,0
1769081550204,1769081550204,0,0,0,0,0,0,0,0,0,0,0,0,0,0,0,0,0,0,0,0,0,0,0,0,0,0,0,0,0,0,0,0,0,0,0,0,0,0,0,0,1,20097
1769081550218,1769081550218,0,0,0,0,0,0,0,0,0,0,0,0,0,0,0,0,0,0,0,0,0,0,0,0,0,0,0,0,0,0,0,0,0,0,0,0,1,28,5,-7,0,0
1769081550224,1769081550224,0,0,0,0,0,1,71,50,1,97,99,1,340957,10456,16819,0,0,0,0,0,0,0,0,0,1,199,23,-1005,0,0,0,0,0,0,0,0,0,0,0,0,0,0
1769081550238,1769081550238,0,0,0,0,0,0,0,0,0,0,0,0,0,0,0,0,0,0,0,0,0,0,0,0,0,0,0,0,0,0,0,0,1,-201,818,4118,0,0,0,0,0,0
1769081550242,1769081550242,0,0,0,0,0,0,0,0,0,0,0,0,0,0,0,0,0,0,0,0,0,0,0,0,0,0,0,0,0,0,0,0,0,0,0,0,0,0,0,0,1,20098
1769081550251,1769081550251,0,0,0,0,0,0,0,0,0,0,0,0,0,0,0,0,0,0,0,0,0,0,0,0,0,0,0,0,0,0,0,0,0,0,0,0,0,0,0,0,1,20099
1769081550258,1769081550258,0,0,0,0,0,0,0,0,0,0,0,0,0,0,0,0,0,0,0,0,0,0,0,0,0,0,0,0,0,0,0,0,0,0,0,0,1,84,16,-25,0,0
1769081550264,1769081550264,0,0,0,0,0,1,71,50,1,97,99,1,340881,10470,16830,0,0,0,0,0,0,0,0,0,1,224,28,-995,0,0,0,0,0,0,0,0,0,0,0,0,0,0
1769081550272,1769081550272,0,0,0,0,0,0,0,0,0,0,0,0,0,0,0,0,0,0,0,0,0,0,0,0,0,0,0,0,0,0,0,0,0,0,0,0,0,0,0,0,1,20100
1769081550277,1769081550277,0,0,0,0,0,0,0,0,0,0,0,0,0,0,0,0,0,0,0,0,0,0,0,0,0,0,0,0,0,0,0,0,1,-237,823,4112,0,0,0,0,0,0
1769081550295,1769081550295,0,0,0,0,0,0,0,0,0,0,0,0,0,0,0,1,999,99900,0,0,0,0,0,0,0,0,0,0,0,0,0,0,0,0,0,0,0,0,0,0,0,0
1769081550296,1769081550296,0,0,0,0,0,0,0,0,0,0,0,0,0,0,0,0,0,0,0,0,0,0,0,0,0,0,0,0,0,0,0,0,0,0,0,0,0,0,0,0,1,20101
1769081550297,1769081550297,0,0,0,0,0,0,0,0,0,0,0,0,0,0,0,0,0,0,0,0,0,0,0,0,0,0,0,0,0,0,0,0,0,0,0,0,1,58,-23,1,0,0
1769081550304,1769081550304,0,0,0,0,0,1,71,50,1,97,99,1,340848,10510,16867,0,0,0,0,0,0,0,0,0,1,250,25,-974,0,0,0,0,0,0,0,0,0,0,0,0,0,0
1769081550317,1769081550317,0,0,0,0,0,0,0,0,0,0,0,0,0,0,0,0,0,0,0,0,0,0,0,0,0,0,0,0,0,0,0,0,1,-185,888,4047,0,0,0,0,0,0
1769081550319,1769081550319,0,0,0,0,0,0,0,0,0,0,0,0,0,0,0,0,0,0,0,0,0,0,0,0,0,0,0,0,0,0,0,0,0,0,0,0,0,0,0,0,1,20102
1769081550334,1769081550334,0,0,0,0,0,0,0,0,0,0,0,0,0,0,0,0,0,0,0,0,0,0,0,0,0,0,0,0,0,0,0,0,0,0,0,0,0,0,0,0,1,20103
1769081550337,1769081550337,0,0,0,0,0,0,0,0,0,0,0,0,0,0,0,0,0,0,0,0,0,0,0,0,0,0,0,0,0,0,0,0,0,0,0,0,1,38,-58,28,0,0
1769081550344,1769081550344,0,0,0,0,0,1,71,50,1,97,99,1,340837,10566,16924,0,0,0,0,0,0,0,0,0,1,226,39,-994,0,0,0,0,0,0,0,0,0,0,0,0,0,0
1769081550354,1769081550354,0,0,0,0,0,0,0,0,0,0,0,0,0,0,0,0,0,0,0,0,0,0,0,0,0,0,0,0,0,0,0,0,0,0,0,0,0,0,0,0,1,20104
1769081550357,1769081550357,0,0,0,0,0,0,0,0,0,0,0,0,0,0,0,0,0,0,0,0,0,0,0,0,0,0,0,0,0,0,0,0,1,-131,849,4050,0,0,0,0,0,0
1769081550377,1769081550377,0,0,0,0,0,0,0,0,0,0,0,0,0,0,0,0,0,0,0,0,0,0,0,0,0,0,0,0,0,0,0,0,0,0,0,0,1,32,-42,57,0,0
1769081550379,1769081550379,0,0,0,0,0,0,0,0,0,0,0,0,0,0,0,0,0,0,0,0,0,0,0,0,0,0,0,0,0,0,0,0,0,0,0,0,0,0,0,0,1,20105
1769081550384,1769081550384,0,0,0,0,0,1,71,50,1,97,99,1,340872,10590,16946,0,0,0,0,0,0,0,0,0,1,199,36,-1003,0,0,0,0,0,0,0,0,0,0,0,0,0,0
1769081550397,1769081550397,0,0,0,0,0,0,0,0,0,0,0,0,0,0,0,0,0,0,0,0,0,0,0,0,0,0,0,0,0,0,0,0,1,-128,854,4062,0,0,0,0,0,0
1769081550399,1769081550399,0,0,0,0,0,0,0,0,0,0,0,0,0,0,0,0,0,0,0,0,0,0,0,0,0,0,0,0,0,0,0,0,0,0,0,0,0,0,0,0,1,20106
1769081550417,1769081550417,0,0,0,0,0,0,0,0,0,0,0,0,0,0,0,0,0,0,0,0,0,0,0,0,0,0,0,0,0,0,0,0,0,0,0,0,1,84,2,57,0,0
1769081550424,1769081550424,0,0,0,0,0,1,71,50,1,97,99,1,340908,10619,16976,0,0,0,0,0,0,0,0,0,1,232,21,-976,0,0,0,0,0,0,0,0,0,0,0,0,0,0
1769081550430,1769081550430,0,0,0,0,0,0,0,0,0,0,0,0,0,0,0,0,0,0,0,0,0,0,0,0,0,0,0,0,0,0,0,0,0,0,0,0,0,0,0,0,1,20107
1769081550437,1769081550437,0,0,0,0,0,0,0,0,0,0,0,0,0,0,0,0,0,0,0,0,0,0,0,0,0,0,0,0,0,0,0,0,1,-105,867,4066,0,0,0,0,0,0
1769081550443,1769081550443,0,0,0,0,0,0,0,0,0,0,0,0,0,0,0,0,0,0,0,0,0,0,0,0,0,0,0,0,0,0,0,0,0,0,0,0,0,0,0,0,1,20108
1769081550456,1769081550456,0,0,0,0,0,0,0,0,0,0,0,0,0,0,0,0,0,0,0,0,0,0,0,0,0,0,0,0,0,0,0,0,0,0,0,0,1,90,18,57,0,0
1769081550459,1769081550459,0,0,0,0,0,0,0,0,0,0,0,0,0,0,0,0,0,0,0,0,0,0,0,0,0,0,0,0,0,0,0,0,0,0,0,0,0,0,0,0,1,20109
1769081550464,1769081550464,0,0,0,0,0,1,71,50,1,97,99,1,340982,10670,17025,0,0,0,0,0,0,0,0,0,1,221,26,-980,0,0,0,0,0,0,0,0,0,0,0,0,0,0
1769081550476,1769081550476,0,0,0,0,0,0,0,0,0,0,0,0,0,0,0,0,0,0,0,0,0,0,0,0,0,0,0,0,0,0,0,0,1,-88,825,4059,0,0,0,0,0,0
1769081550481,1769081550481,0,0,0,0,0,0,0,0,0,0,0,0,0,0,0,0,0,0,0,0,0,0,0,0,0,0,0,0,0,0,0,0,0,0,0,0,0,0,0,0,1,20110
1769081550496,1769081550496,0,0,0,0,0,0,0,0,0,0,0,0,0,0,0,0,0,0,0,0,0,0,0,0,0,0,0,0,0,0,0,0,0,0,0,0,1,37,20,40,0,0
1769081550503,1769081550503,0,0,0,0,0,0,0,0,0,0,0,0,0,0,0,0,0,0,0,0,0,0,0,0,0,0,0,0,0,0,0,0,0,0,0,0,0,0,0,0,1,20111
1769081550504,1769081550504,0,0,0,0,0,1,71,50,1,97,99,1,341054,10680,17029,0,0,0,0,0,0,0,0,0,1,199,13,-976,0,0,0,0,0,0,0,0,0,0,0,0,0,0
1769081550516,1769081550516,0,0,0,0,0,0,0,0,0,0,0,0,0,0,0,0,0,0,0,0,0,0,0,0,0,0,0,0,0,0,0,0,1,-69,911,3990,0,0,0,0,0,0
1769081550527,1769081550527,0,0,0,0,0,0,0,0,0,0,0,0,0,0,0,0,0,0,0,0,0,0,0,0,0,0,0,0,0,0,0,0,0,0,0,0,0,0,0,0,1,20112
1769081550536,1769081550536,0,0,0,0,0,0,0,0,0,0,0,0,0,0,0,0,0,0,0,0,0,0,0,0,0,0,0,0,0,0,0,0,0,0,0,0,1,100,72,20,0,0
1769081550544,1769081550544,0,0,0,0,0,1,71,50,1,97,99,1,341157,10706,17054,0,0,0,0,0,0,0,0,0,1,213,14,-974,0,0,0,0,0,0,0,0,0,0,0,0,0,0
1769081550556,1769081550556,0,0,0,0,0,0,0,0,0,0,0,0,0,0,0,0,0,0,0,0,0,0,0,0,0,0,0,0,0,0,0,0,1,-119,937,3968,0,0,0,0,1,20113
1769081550563,1769081550563,0,0,0,0,0,0,0,0,0,0,0,0,0,0,0,0,0,0,0,0,0,0,0,0,0,0,0,0,0,0,0,0,0,0,0,0,0,0,0,0,1,20114
1769081550576,1769081550576,0,0,0,0,0,0,0,0,0,0,0,0,0,0,0,0,0,0,0,0,0,0,0,0,0,0,0,0,0,0,0,0,0,0,0,0,1,149,91,32,0,0
1769081550584,1769081550584,0,0,0,0,0,1,71,50,1,97,99,1,341265,10743,17090,0,0,0,0,0,0,0,0,0,1,210,18,-980,0,0,0,0,0,0,0,0,0,0,0,0,0,0
1769081550586,1769081550586,0,0,0,0,0,0,0,0,0,0,0,0,0,0,0,0,0,0,0,0,0,0,0,0,0,0,0,0,0,0,0,0,0,0,0,0,0,0,0,0,1,20115
1769081550596,1769081550596,0,0,0,0,0,0,0,0,0,0,0,0,0,0,0,0,0,0,0,0,0,0,0,0,0,0,0,0,0,0,0,0,1,-122,988,3966,0,0,0,0,0,0
1769081550608,1769081550608,0,0,0,0,0,0,0,0,0,0,0,0,0,0,0,0,0,0,0,0,0,0,0,0,0,0,0,0,0,0,0,0,0,0,0,0,0,0,0,0,1,20116
1769081550616,1769081550616,0,0,0,0,0,0,0,0,0,0,0,0,0,0,0,0,0,0,0,0,0,0,0,0,0,0,0,0,0,0,0,0,0,0,0,0,1,86,34,18,0,0
1769081550624,1769081550624,0,0,0,0,0,1,71,50,1,97,99,1,341413,10767,17114,0,0,0,0,0,0,0,0,0,1,237,25,-970,0,0,0,0,0,0,0,0,0,0,0,0,0,0
1769081550636,1769081550636,0,0,0,0,0,0,0,0,0,0,0,0,0,0,0,0,0,0,0,0,0,0,0,0,0,0,0,0,0,0,0,0,1,-99,911,4032,0,0,0,0,0,0
1769081550655,1769081550655,0,0,0,0,0,0,0,0,0,0,0,0,0,0,0,0,0,0,0,0,0,0,0,0,0,0,0,0,0,0,0,0,0,0,0,0,1,-16,-11,21,0,0
1769081550664,1769081550664,0,0,0,0,0,1,71,50,1,97,99,1,341561,10799,17153,0,0,0,0,0,0,0,0,0,1,243,19,-957,0,0,0,0,0,0,0,0,0,0,0,0,0,0
1769081550675,1769081550675,0,0,0,0,0,0,0,0,0,0,0,0,0,0,0,0,0,0,0,0,0,0,0,0,0,0,0,0,0,0,0,0,1,-139,999,4063,0,0,0,0,0,0
1769081550695,1769081550695,0,0,0,0,0,0,0,0,0,0,0,0,0,0,0,0,0,0,0,0,0,0,0,0,0,0,0,0,0,0,0,0,0,0,0,0,1,83,-2,29,0,0
1769081550704,1769081550704,0,0,0,0,0,1,71,50,1,97,99,1,341698,10824,17176,0,0,0,0,0,0,0,0,0,1,237,7,-953,0,0,0,0,0,0,0,0,0,0,0,0,0,0
1769081550715,1769081550715,0,0,0,0,0,0,0,0,0,0,0,0,0,0,0,0,0,0,0,0,0,0,0,0,0,0,0,0,0,0,0,0,1,-156,1079,4098,0,0,0,0,0,0
1769081550735,1769081550735,0,0,0,0,0,0,0,0,0,0,0,0,0,0,0,0,0,0,0,0,0,0,0,0,0,0,0,0,0,0,0,0,0,0,0,0,1,42,-29,38,0,0
1769081550744,1769081550744,0,0,0,0,0,1,71,50,1,97,99,1,341849,10844,17191,0,0,0,0,0,0,0,0,0,1,242,3,-946,0,0,0,0,0,0,0,0,0,0,0,0,0,0
1769081550755,1769081550755,0,0,0,0,0,0,0,0,0,0,0,0,0,0,0,0,0,0,0,0,0,0,0,0,0,0,0,0,0,0,0,0,1,-104,949,4060,0,0,0,0,0,0
1769081550775,1769081550775,0,0,0,0,0,0,0,0,0,0,0,0,0,0,0,0,0,0,0,0,0,0,0,0,0,0,0,0,0,0,0,0,0,0,0,0,1,-64,-82,53,0,0
1769081550784,1769081550784,0,0,0,0,0,1,71,50,1,97,99,1,341980,10868,17215,0,0,0,0,0,0,0,0,0,1,246,0,-945,0,0,0,0,0,0,0,0,0,0,0,0,0,0
1769081550795,1769081550795,0,0,0,0,0,0,0,0,0,0,0,0,0,0,0,0,0,0,0,0,0,0,0,0,0,0,0,0,0,0,0,0,1,-139,1093,4059,0,0,0,0,0,0
1769081550815,1769081550815,0,0,0,0,0,0,0,0,0,0,0,0,0,0,0,0,0,0,0,0,0,0,0,0,0,0,0,0,0,0,0,0,0,0,0,0,1,134,-43,44,0,0
1769081550824,1769081550824,0,0,0,0,0,1,71,50,1,97,99,1,342088,10903,17241,0,0,0,0,0,0,0,0,0,1,240,0,-967,0,0,0,0,0,0,0,0,0,0,0,0,0,0
1769081550834,1769081550834,0,0,0,0,0,0,0,0,0,0,0,0,0,0,0,0,0,0,0,0,0,0,0,0,0,0,0,0,0,0,0,0,1,-148,1137,4045,0,0,0,0,0,0
1769081550854,1769081550854,0,0,0,0,0,0,0,0,0,0,0,0,0,0,0,0,0,0,0,0,0,0,0,0,0,0,0,0,0,0,0,0,0,0,0,0,1,142,4,28,0,0
1769081550864,1769081550864,0,0,0,0,0,1,71,50,1,97,99,1,342090,10939,17274,0,0,0,0,0,0,0,0,0,1,251,-6,-955,0,0,0,0,0,0,0,0,0,0,0,0,0,0
1769081550874,1769081550874,0,0,0,0,0,0,0,0,0,0,0,0,0,0,0,0,0,0,0,0,0,0,0,0,0,0,0,0,0,0,0,0,1,-167,999,4081,0,0,0,0,0,0
1769081550894,1769081550894,0,0,0,0,0,0,0,0,0,0,0,0,0,0,0,0,0,0,0,0,0,0,0,0,0,0,0,0,0,0,0,0,0,0,0,0,1,-39,10,36,0,0
1769081550904,1769081550904,0,0,0,0,0,1,71,50,1,97,99,1,341985,10979,17310,0,0,0,0,0,0,0,0,0,1,254,-12,-961,0,0,0,0,0,0,0,0,0,0,0,0,0,0
1769081550914,1769081550914,0,0,0,0,0,0,0,0,0,0,0,0,0,0,0,0,0,0,0,0,0,0,0,0,0,0,0,0,0,0,0,0,1,-163,970,4046,0,0,0,0,0,0
1769081550934,1769081550934,0,0,0,0,0,0,0,0,0,0,0,0,0,0,0,0,0,0,0,0,0,0,0,0,0,0,0,0,0,0,0,0,0,0,0,0,1,29,-3,48,0,0
1769081550935,1769081550935,0,0,0,0,0,0,0,0,0,0,0,0,0,0,0,1,999,99903,0,0,0,0,0,0,0,0,0,0,0,0,0,0,0,0,0,0,0,0,0,0,0,0
1769081550944,1769081550944,0,0,0,0,0,1,71,50,1,97,99,1,341832,11009,17334,0,0,0,0,0,0,0,0,0,1,246,-15,-972,0,0,0,0,0,0,0,0,0,0,0,0,0,0
1769081550954,1769081550954,0,0,0,0,0,0,0,0,0,0,0,0,0,0,0,0,0,0,0,0,0,0,0,0,0,0,0,0,0,0,0,0,1,-133,1072,4034,0,0,0,0,0,0
1769081550974,1769081550974,0,0,0,0,0,0,0,0,0,0,0,0,0,0,0,0,0,0,0,0,0,0,0,0,0,0,0,0,0,0,0,0,0,0,0,0,1,171,-11,61,0,0
1769081550984,1769081550984,0,0,0,0,0,1,71,50,1,97,99,1,341682,11068,17392,0,0,0,0,0,0,0,0,0,1,275,-8,-967,0,0,0,0,0,0,0,0,0,0,0,0,0,0
1769081550994,1769081550994,0,0,0,0,0,0,0,0,0,0,0,0,0,0,0,0,0,0,0,0,0,0,0,0,0,0,0,0,0,0,0,0,1,-120,972,4004,0,0,0,0,0,0
1769081551013,1769081551013,0,0,0,0,0,0,0,0,0,0,0,0,0,0,0,0,0,0,0,0,0,0,0,0,0,0,0,0,0,0,0,0,0,0,0,0,1,6,-36,59,0,0
1769081551024,1769081551024,0,0,0,0,0,1,71,50,1,97,99,1,341533,11135,17440,0,0,0,0,0,0,0,1,3,1,246,-16,-983,0,0,0,0,0,0,0,0,0,0,0,0,1,20117
1769081551033,1769081551033,0,0,0,0,0,0,0,0,0,0,0,0,0,0,0,0,0,0,0,0,0,0,0,0,0,0,0,0,0,0,0,0,1,-81,953,3945,0,0,0,0,0,0
1769081551044,1769081551044,0,0,0,0,0,0,0,0,0,0,0,0,0,0,0,0,0,0,0,0,0,0,0,0,0,0,0,0,0,0,0,0,0,0,0,0,0,0,0,0,1,20118
1769081551046,1769081551046,0,0,0,0,0,0,0,0,0,0,0,0,0,0,0,0,0,0,1,30.49146270751953,1,27.0733585357666,0,0,0,0,0,0,0,0,0,0,0,0,0,0,0,0,0,0,0,0
1769081551048,1769081551048,1,-12,3832,300,58.400000000000006,0,0,0,0,0,0,0,0,0,0,0,0,0,0,0,0,0,0,0,0,0,0,0,0,0,0,0,0,0,0,0,0,0,0,0,0,0
1769081551053,1769081551053,0,0,0,0,0,0,0,0,0,0,0,0,0,0,0,0,0,0,0,0,0,0,0,0,0,0,0,0,0,0,0,0,0,0,0,0,1,17,-60,60,0,0
1769081551064,1769081551064,0,0,0,0,0,1,71,50,1,97,99,1,341391,11173,17470,0,0,0,0,0,0,0,0,0,1,260,-15,-994,0,0,0,0,0,0,0,0,0,0,0,0,0,0
1769081551073,1769081551073,0,0,0,0,0,0,0,0,0,0,0,0,0,0,0,0,0,0,0,0,0,0,0,0,0,0,0,0,0,0,0,0,1,-96,1017,4004,0,0,0,0,0,0
1769081551075,1769081551075,0,0,0,0,0,0,0,0,0,0,0,0,0,0,0,0,0,0,0,0,0,0,0,0,0,0,0,0,0,0,0,0,0,0,0,0,0,0,0,0,1,20119
1769081551090,1769081551090,0,0,0,0,0,0,0,0,0,0,0,0,0,0,0,0,0,0,0,0,0,0,0,0,0,0,0,0,0,0,0,0,0,0,0,0,0,0,0,0,1,20120
1769081551093,1769081551093,0,0,0,0,0,0,0,0,0,0,0,0,0,0,0,0,0,0,0,0,0,0,0,0,0,0,0,0,0,0,0,0,0,0,0,0,1,140,-34,39,0,0
1769081551104,1769081551104,0,0,0,0,0,1,71,50,1,97,99,1,341337,11224,17528,0,0,0,0,0,0,0,0,0,1,272,-5,-992,0,0,0,0,0,0,0,0,0,0,0,0,0,0
1769081551112,1769081551112,0,0,0,0,0,0,0,0,0,0,0,0,0,0,0,0,0,0,0,0,0,0,0,0,0,0,0,0,0,0,0,0,0,0,0,0,0,0,0,0,1,20121
1769081551113,1769081551113,0,0,0,0,0,0,0,0,0,0,0,0,0,0,0,0,0,0,0,0,0,0,0,0,0,0,0,0,0,0,0,0,1,-101,1005,3987,0,0,0,0,0,0
1769081551133,1769081551133,0,0,0,0,0,0,0,0,0,0,0,0,0,0,0,0,0,0,0,0,0,0,0,0,0,0,0,0,0,0,0,0,0,0,0,0,1,122,-37,37,0,0
1769081551136,1769081551136,0,0,0,0,0,0,0,0,0,0,0,0,0,0,0,0,0,0,0,0,0,0,0,0,0,0,0,0,0,0,0,0,0,0,0,0,0,0,0,0,1,20122
1769081551144,1769081551144,0,0,0,0,0,1,71,50,1,97,99,1,341312,11262,17569,0,0,0,0,0,0,0,0,0,1,289,-20,-986,0,0,0,0,0,0,0,0,0,0,0,0,0,0
1769081551149,1769081551149,0,0,0,0,0,0,0,0,0,0,0,0,0,0,0,0,0,0,0,0,0,0,0,0,0,0,0,0,0,0,0,0,0,0,0,0,0,0,0,0,1,20123
1769081551153,1769081551153,0,0,0,0,0,0,0,0,0,0,0,0,0,0,0,0,0,0,0,0,0,0,0,0,0,0,0,0,0,0,0,0,1,-117,1088,3974,0,0,0,0,0,0
1769081551172,1769081551172,0,0,0,0,0,0,0,0,0,0,0,0,0,0,0,0,0,0,0,0,0,0,0,0,0,0,0,0,0,0,0,0,0,0,0,0,0,0,0,0,1,20124
1769081551173,1769081551173,0,0,0,0,0,0,0,0,0,0,0,0,0,0,0,0,0,0,0,0,0,0,0,0,0,0,0,0,0,0,0,0,0,0,0,0,1,174,-52,49,0,0
1769081551184,1769081551184,0,0,0,0,0,1,71,50,1,97,99,1,341295,11315,17611,0,0,0,0,0,0,0,0,0,1,274,-24,-976,0,0,0,0,0,0,0,0,0,0,0,0,0,0
1769081551192,1769081551192,0,0,0,0,0,0,0,0,0,0,0,0,0,0,0,0,0,0,0,0,0,0,0,0,0,0,0,0,0,0,0,0,1,-80,1096,3917,0,0,0,0,0,0
1769081551194,1769081551194,0,0,0,0,0,0,0,0,0,0,0,0,0,0,0,0,0,0,0,0,0,0,0,0,0,0,0,0,0,0,0,0,0,0,0,0,0,0,0,0,1,20125
1769081551212,1769081551212,0,0,0,0,0,0,0,0,0,0,0,0,0,0,0,0,0,0,0,0,0,0,0,0,0,0,0,0,0,0,0,0,0,0,0,0,1,106,-70,43,0,0
1769081551217,1769081551217,0,0,0,0,0,0,0,0,0,0,0,0,0,0,0,0,0,0,0,0,0,0,0,0,0,0,0,0,0,0,0,0,0,0,0,0,0,0,0,0,1,20126
1769081551224,1769081551224,0,0,0,0,0,1,71,50,1,97,99,1,341279,11363,17652,0,0,0,0,0,0,0,0,0,1,256,-29,-983,0,0,0,0,0,0,0,0,0,0,0,0,0,0
1769081551232,1769081551232,0,0,0,0,0,0,0,0,0,0,0,0,0,0,0,0,0,0,0,0,0,0,0,0,0,0,0,0,0,0,0,0,1,-38,1078,3884,0,0,0,0,0,0
1769081551240,1769081551240,0,0,0,0,0,0,0,0,0,0,0,0,0,0,0,0,0,0,0,0,0,0,0,0,0,0,0,0,0,0,0,0,0,0,0,0,0,0,0,0,1,20127
1769081551252,1769081551252,0,0,0,0,0,0,0,0,0,0,0,0,0,0,0,0,0,0,0,0,0,0,0,0,0,0,0,0,0,0,0,0,0,0,0,0,1,63,-86,65,0,0
1769081551262,1769081551262,0,0,0,0,0,0,0,0,0,0,0,0,0,0,0,0,0,0,0,0,0,0,0,0,0,0,0,0,0,0,0,0,0,0,0,0,0,0,0,0,1,20128
1769081551264,1769081551264,0,0,0,0,0,1,71,50,1,97,99,1,341288,11431,17713,0,0,0,0,0,0,0,0,0,1,273,-12,-945,0,0,0,0,0,0,0,0,0,0,0,0,0,0
1769081551272,1769081551272,0,0,0,0,0,0,0,0,0,0,0,0,0,0,0,0,0,0,0,0,0,0,0,0,0,0,0,0,0,0,0,0,1,-32,1132,3868,0,0,0,0,0,0
1769081551278,1769081551278,0,0,0,0,0,0,0,0,0,0,0,0,0,0,0,0,0,0,0,0,0,0,0,0,0,0,0,0,0,0,0,0,0,0,0,0,0,0,0,0,1,20129
1769081551292,1769081551292,0,0,0,0,0,0,0,0,0,0,0,0,0,0,0,0,0,0,0,0,0,0,0,0,0,0,0,0,0,0,0,0,0,0,0,0,1,86,-58,64,0,0
1769081551301,1769081551301,0,0,0,0,0,0,0,0,0,0,0,0,0,0,0,0,0,0,0,0,0,0,0,0,0,0,0,0,0,0,0,0,0,0,0,0,0,0,0,0,1,20130
1769081551304,1769081551304,0,0,0,0,0,1,71,50,1,97,99,1,341314,11478,17761,0,0,0,0,0,0,0,0,0,1,220,-28,-969,0,0,0,0,0,0,0,0,0,0,0,0,0,0
1769081551312,1769081551312,0,0,0,0,0,0,0,0,0,0,0,0,0,0,0,0,0,0,0,0,0,0,0,0,0,0,0,0,0,0,0,0,1,-14,1114,3891,0,0,0,0,0,0
1769081551329,1769081551329,0,0,0,0,0,0,0,0,0,0,0,0,0,0,0,0,0,0,0,0,0,0,0,0,0,0,0,0,0,0,0,0,0,0,0,0,0,0,0,0,1,20131
1769081551332,1769081551332,0,0,0,0,0,0,0,0,0,0,0,0,0,0,0,0,0,0,0,0,0,0,0,0,0,0,0,0,0,0,0,0,0,0,0,0,1,76,-45,76,0,0
1769081551344,1769081551344,0,0,0,0,0,1,71,50,1,97,99,1,341358,11528,17803,0,0,0,0,0,0,0,0,0,1,218,-12,-950,0,0,0,0,0,0,0,0,0,0,0,0,0,0
1769081551351,1769081551351,0,0,0,0,0,0,0,0,0,0,0,0,0,0,0,0,0,0,0,0,0,0,0,0,0,0,0,0,0,0,0,0,0,0,0,0,0,0,0,0,1,20132
1769081551352,1769081551352,0,0,0,0,0,0,0,0,0,0,0,0,0,0,0,0,0,0,0,0,0,0,0,0,0,0,0,0,0,0,0,0,1,-32,1101,3952,0,0,0,0,0,0
1769081551369,1769081551369,0,0,0,0,0,0,0,0,0,0,0,0,0,0,0,0,0,0,0,0,0,0,0,0,0,0,0,0,0,0,0,0,0,0,0,0,0,0,0,0,1,20133
1769081551372,1769081551372,0,0,0,0,0,0,0,0,0,0,0,0,0,0,0,0,0,0,0,0,0,0,0,0,0,0,0,0,0,0,0,0,0,0,0,0,1,84,-41,80,0,0
1769081551384,1769081551384,0,0,0,0,0,1,71,50,1,97,99,1,341408,11565,17844,0,0,0,0,0,0,0,0,0,1,234,-25,-945,0,0,0,0,0,0,0,0,0,0,0,0,0,0
1769081551389,1769081551389,0,0,0,0,0,0,0,0,0,0,0,0,0,0,0,0,0,0,0,0,0,0,0,0,0,0,0,0,0,0,0,0,0,0,0,0,0,0,0,0,1,20134
1769081551391,1769081551391,0,0,0,0,0,0,0,0,0,0,0,0,0,0,0,0,0,0,0,0,0,0,0,0,0,0,0,0,0,0,0,0,1,6,1175,3944,0,0,0,0,0,0
1769081551403,1769081551403,0,0,0,0,0,0,0,0,0,0,0,0,0,0,0,0,0,0,0,0,0,0,0,0,0,0,0,0,0,0,0,0,0,0,0,0,0,0,0,0,1,20135
1769081551411,1769081551411,0,0,0,0,0,0,0,0,0,0,0,0,0,0,0,0,0,0,0,0,0,0,0,0,0,0,0,0,0,0,0,0,0,0,0,0,1,68,-41,67,0,0
1769081551424,1769081551424,0,0,0,0,0,1,71,50,1,97,99,1,341492,11620,17885,0,0,0,0,0,0,0,0,0,1,210,-17,-954,0,0,0,0,0,0,0,0,0,0,0,0,0,0
1769081551429,1769081551429,0,0,0,0,0,0,0,0,0,0,0,0,0,0,0,0,0,0,0,0,0,0,0,0,0,0,0,0,0,0,0,0,0,0,0,0,0,0,0,0,1,20136
1769081551431,1769081551431,0,0,0,0,0,0,0,0,0,0,0,0,0,0,0,0,0,0,0,0,0,0,0,0,0,0,0,0,0,0,0,0,1,29,1147,3940,0,0,0,0,0,0
1769081551451,1769081551451,0,0,0,0,0,0,0,0,0,0,0,0,0,0,0,0,0,0,0,0,0,0,0,0,0,0,0,0,0,0,0,0,0,0,0,0,1,-51,-41,49,1,20137
1769081551464,1769081551464,0,0,0,0,0,1,71,50,1,97,99,1,341583,11659,17918,0,0,0,0,0,0,0,0,0,1,226,-19,-931,0,0,0,0,0,0,0,0,0,0,0,0,0,0
1769081551471,1769081551471,0,0,0,0,0,0,0,0,0,0,0,0,0,0,0,0,0,0,0,0,0,0,0,0,0,0,0,0,0,0,0,0,1,48,1166,3949,0,0,0,0,0,0
1769081551487,1769081551487,0,0,0,0,0,0,0,0,0,0,0,0,0,0,0,0,0,0,0,0,0,0,0,0,0,0,0,0,0,0,0,0,0,0,0,0,0,0,0,0,1,20138
1769081551491,1769081551491,0,0,0,0,0,0,0,0,0,0,0,0,0,0,0,0,0,0,0,0,0,0,0,0,0,0,0,0,0,0,0,0,0,0,0,0,1,-26,-26,37,0,0
1769081551494,1769081551494,0,0,0,0,0,0,0,0,0,0,0,0,0,0,0,0,0,0,0,0,0,0,0,0,0,0,0,0,0,0,0,0,0,0,0,0,0,0,0,0,1,20139
1769081551504,1769081551504,0,0,0,0,0,1,71,50,1,97,99,1,341681,11699,17953,0,0,0,0,0,0,0,0,0,1,219,-11,-976,0,0,0,0,0,0,0,0,0,0,0,0,0,0
1769081551511,1769081551511,0,0,0,0,0,0,0,0,0,0,0,0,0,0,0,0,0,0,0,0,0,0,0,0,0,0,0,0,0,0,0,0,1,31,1215,3987,0,0,0,0,0,0
1769081551518,1769081551518,0,0,0,0,0,0,0,0,0,0,0,0,0,0,0,0,0,0,0,0,0,0,0,0,0,0,0,0,0,0,0,0,0,0,0,0,0,0,0,0,1,20140
1769081551531,1769081551531,0,0,0,0,0,0,0,0,0,0,0,0,0,0,0,0,0,0,0,0,0,0,0,0,0,0,0,0,0,0,0,0,0,0,0,0,1,4,10,17,0,0
1769081551532,1769081551532,0,0,0,0,0,0,0,0,0,0,0,0,0,0,0,0,0,0,0,0,0,0,0,0,0,0,0,0,0,0,0,0,0,0,0,0,0,0,0,0,1,20141
1769081551544,1769081551544,0,0,0,0,0,1,71,50,1,97,99,1,341811,11740,17984,0,0,0,0,0,0,0,0,0,1,212,4,-981,0,0,0,0,0,0,0,0,0,0,0,0,0,0
1769081551551,1769081551551,0,0,0,0,0,0,0,0,0,0,0,0,0,0,0,0,0,0,0,0,0,0,0,0,0,0,0,0,0,0,0,0,1,62,1136,3980,0,0,0,0,0,0
1769081551554,1769081551554,0,0,0,0,0,0,0,0,0,0,0,0,0,0,0,0,0,0,0,0,0,0,0,0,0,0,0,0,0,0,0,0,0,0,0,0,0,0,0,0,1,20142
1769081551570,1769081551570,0,0,0,0,0,0,0,0,0,0,0,0,0,0,0,0,0,0,0,0,0,0,0,0,0,0,0,0,0,0,0,0,0,0,0,0,1,-41,5,6,0,0
1769081551575,1769081551575,0,0,0,0,0,0,0,0,0,0,0,0,0,0,0,1,999,99900,0,0,0,0,0,0,0,0,0,0,0,0,0,0,0,0,0,0,0,0,0,0,0,0
1769081551584,1769081551584,0,0,0,0,0,1,71,50,1,97,99,1,341953,11772,18016,0,0,0,0,0,0,0,0,0,1,233,0,-978,0,0,0,0,0,0,0,0,0,0,0,0,0,0
1769081551590,1769081551590,0,0,0,0,0,0,0,0,0,0,0,0,0,0,0,0,0,0,0,0,0,0,0,0,0,0,0,0,0,0,0,0,1,18,1234,4090,0,0,0,0,0,0
1769081551606,1769081551606,0,0,0,0,0,0,0,0,0,0,0,0,0,0,0,0,0,0,0,0,0,0,0,0,0,0,0,0,0,0,0,0,0,0,0,0,0,0,0,0,1,20143
1769081551610,1769081551610,0,0,0,0,0,0,0,0,0,0,0,0,0,0,0,0,0,0,0,0,0,0,0,0,0,0,0,0,0,0,0,0,0,0,0,0,1,82,22,3,0,0
1769081551613,1769081551613,0,0,0,0,0,0,0,0,0,0,0,0,0,0,0,0,0,0,0,0,0,0,0,0,0,0,0,0,0,0,0,0,0,0,0,0,0,0,0,0,1,20144
1769081551623,1769081551623,0,0,0,0,0,0,0,0,0,0,0,0,0,0,0,0,0,0,0,0,0,0,0,0,0,0,0,0,0,0,0,0,0,0,0,0,0,0,0,0,1,20145
1769081551624,1769081551624,0,0,0,0,0,1,71,50,1,97,99,1,342127,11805,18044,0,0,0,0,0,0,0,0,0,1,227,6,-981,0,0,0,0,0,0,0,0,0,0,0,0,0,0
1769081551630,1769081551630,0,0,0,0,0,0,0,0,0,0,0,0,0,0,0,0,0,0,0,0,0,0,0,0,0,0,0,0,0,0,0,0,1,34,1246,4061,0,0,0,0,0,0
1769081551650,1769081551650,0,0,0,0,0,0,0,0,0,0,0,0,0,0,0,0,0,0,0,0,0,0,0,0,0,0,0,0,0,0,0,0,0,0,0,0,1,49,1,-12,0,0
1769081551664,1769081551664,0,0,0,0,0,1,71,50,1,97,99,1,342290,11827,18064,0,0,0,0,0,0,0,0,0,1,231,7,-969,0,0,0,0,0,0,0,0,0,0,0,0,0,0
1769081551670,1769081551670,0,0,0,0,0,0,0,0,0,0,0,0,0,0,0,0,0,0,0,0,0,0,0,0,0,0,0,0,0,0,0,0,1,62,1312,4056,0,0,0,0,0,0
1769081551690,1769081551690,0,0,0,0,0,0,0,0,0,0,0,0,0,0,0,0,0,0,0,0,0,0,0,0,0,0,0,0,0,0,0,0,0,0,0,0,1,-29,-27,0,0,0
1769081551704,1769081551704,0,0,0,0,0,1,71,50,1,97,99,1,342457,11850,18083,0,0,0,0,0,0,0,0,0,1,226,-12,-980,0,0,0,0,0,0,0,0,0,0,0,0,0,0
1769081551710,1769081551710,0,0,0,0,0,0,0,0,0,0,0,0,0,0,0,0,0,0,0,0,0,0,0,0,0,0,0,0,0,0,0,0,1,97,1197,3965,0,0,0,0,0,0
1769081551730,1769081551730,0,0,0,0,0,0,0,0,0,0,0,0,0,0,0,0,0,0,0,0,0,0,0,0,0,0,0,0,0,0,0,0,0,0,0,0,1,-138,-42,10,0,0
1769081551744,1769081551744,0,0,0,0,0,1,71,50,1,97,99,1,342630,11874,18107,0,0,0,0,0,0,0,0,0,1,216,-20,-1003,0,0,0,0,0,0,0,0,0,0,0,0,0,0
1769081551749,1769081551749,0,0,0,0,0,0,0,0,0,0,0,0,0,0,0,0,0,0,0,0,0,0,0,0,0,0,0,0,0,0,0,0,1,89,1180,3995,0,0,0,0,0,0
1769081551769,1769081551769,0,0,0,0,0,0,0,0,0,0,0,0,0,0,0,0,0,0,0,0,0,0,0,0,0,0,0,0,0,0,0,0,0,0,0,0,1,-98,-34,29,0,0
1769081551784,1769081551784,0,0,0,0,0,1,71,50,1,97,99,1,342831,11899,18127,0,0,0,0,0,0,0,0,0,1,256,-16,-976,0,0,0,0,0,0,0,0,0,0,0,0,0,0
1769081551789,1769081551789,0,0,0,0,0,0,0,0,0,0,0,0,0,0,0,0,0,0,0,0,0,0,0,0,0,0,0,0,0,0,0,0,1,55,1223,3932,0,0,0,0,0,0
1769081551809,1769081551809,0,0,0,0,0,0,0,0,0,0,0,0,0,0,0,0,0,0,0,0,0,0,0,0,0,0,0,0,0,0,0,0,0,0,0,0,1,-109,-13,44,0,0
1769081551824,1769081551824,0,0,0,0,0,1,71,50,1,97,99,1,343028,11914,18145,0,0,0,0,0,0,0,0,0,1,228,-24,-991,0,0,0,0,0,0,0,0,0,0,0,0,0,0
1769081551829,1769081551829,0,0,0,0,0,0,0,0,0,0,0,0,0,0,0,0,0,0,0,0,0,0,0,0,0,0,0,0,0,0,0,0,1,87,978,3906,0,0,0,0,0,0
1769081551849,1769081551849,0,0,0,0,0,0,0,0,0,0,0,0,0,0,0,0,0,0,0,0,0,0,0,0,0,0,0,0,0,0,0,0,0,0,0,0,1,-282,-49,70,0,0
1769081551864,1769081551864,0,0,0,0,0,1,71,50,1,97,99,1,343195,11938,18163,0,0,0,0,0,0,0,0,0,1,205,-22,-998,0,0,0,0,0,0,0,0,0,0,0,0,0,0
1769081551869,1769081551869,0,0,0,0,0,0,0,0,0,0,0,0,0,0,0,0,0,0,0,0,0,0,0,0,0,0,0,0,0,0,0,0,1,39,1031,3880,0,0,0,0,0,0
1769081551889,1769081551889,0,0,0,0,0,0,0,0,0,0,0,0,0,0,0,0,0,0,0,0,0,0,0,0,0,0,0,0,0,0,0,0,0,0,0,0,1,-76,-9,73,0,0
1769081551904,1769081551904,0,0,0,0,0,1,71,50,1,97,99,1,343380,11943,18173,0,0,0,0,0,0,0,0,0,1,246,-31,-970,0,0,0,0,0,0,0,0,0,0,0,0,0,0
1769081551909,1769081551909,0,0,0,0,0,0,0,0,0,0,0,0,0,0,0,0,0,0,0,0,0,0,0,0,0,0,0,0,0,0,0,0,1,71,1056,3874,0,0,0,0,0,0
1769081551929,1769081551929,0,0,0,0,0,0,0,0,0,0,0,0,0,0,0,0,0,0,0,0,0,0,0,0,0,0,0,0,0,0,0,0,0,0,0,0,1,13,33,76,0,0
1769081551944,1769081551944,0,0,0,0,0,1,71,50,1,97,99,1,343510,11934,18170,0,0,0,0,0,0,0,0,0,1,245,-24,-973,0,0,0,0,0,0,0,0,0,0,0,0,0,0
1769081551948,1769081551948,0,0,0,0,0,0,0,0,0,0,0,0,0,0,0,0,0,0,0,0,0,0,0,0,0,0,0,0,0,0,0,0,1,45,976,3869,0,0,0,0,0,0
1769081551968,1769081551968,0,0,0,0,0,0,0,0,0,0,0,0,0,0,0,0,0,0,0,0,0,0,0,0,0,0,0,0,0,0,0,0,0,0,0,0,1,-28,83,83,0,0
1769081551984,1769081551984,0,0,0,0,0,1,71,50,1,97,99,1,343662,11930,18171,0,0,0,0,0,0,0,0,0,1,209,-45,-974,0,0,0,0,0,0,0,0,0,0,0,0,0,0
1769081551988,1769081551988,0,0,0,0,0,0,0,0,0,0,0,0,0,0,0,0,0,0,0,0,0,0,0,0,0,0,0,0,0,0,0,0,1,53,1053,3863,0,0,0,0,0,0
1769081552008,1769081552008,0,0,0,0,0,0,0,0,0,0,0,0,0,0,0,0,0,0,0,0,0,0,0,0,0,0,0,0,0,0,0,0,0,0,0,0,1,10,121,87,0,0
1769081552028,1769081552028,0,0,0,0,0,0,0,0,0,0,0,0,0,0,0,0,0,0,0,0,0,0,0,0,0,0,0,0,0,0,0,0,1,6,1005,3976,0,0,0,0,0,0
1769081552034,1769081552034,0,0,0,0,0,1,71,50,1,97,99,1,343789,11925,18167,0,0,0,0,0,0,0,1,3,1,238,-54,-949,0,0,0,0,0,0,0,0,0,0,0,0,0,0
1769081552035,1769081552035,0,0,0,0,0,0,0,0,0,0,0,0,0,0,0,0,0,0,0,0,0,0,0,0,0,0,0,0,0,0,0,0,0,0,0,0,0,0,0,0,1,20146
1769081552046,1769081552046,0,0,0,0,0,0,0,0,0,0,0,0,0,0,0,0,0,0,1,30.506122589111328,0,0,0,0,0,0,0,0,0,0,0,0,0,0,0,0,0,0,0,0,0,0
1769081552047,1769081552047,0,0,0,0,0,0,0,0,0,0,0,0,0,0,0,0,0,0,0,0,1,26.9682559967041,0,0,0,0,0,0,0,0,0,0,0,0,0,0,0,0,0,0,0,0
1769081552048,1769081552048,1,-11,3832,300,58.400000000000006,0,0,0,0,0,0,0,0,0,0,0,0,0,0,0,0,0,0,0,0,0,0,0,0,0,0,0,0,0,0,0,1,-40,159,88,0,0
1769081552057,1769081552057,0,0,0,0,0,0,0,0,0,0,0,0,0,0,0,0,0,0,0,0,0,0,0,0,0,0,0,0,0,0,0,0,0,0,0,0,0,0,0,0,1,20147
1769081552068,1769081552068,0,0,0,0,0,0,0,0,0,0,0,0,0,0,0,0,0,0,0,0,0,0,0,0,0,0,0,0,0,0,0,0,1,-25,1012,4011,0,0,0,0,0,0
1769081552072,1769081552072,0,0,0,0,0,1,71,50,1,97,99,1,343930,11920,18162,0,0,0,0,0,0,0,0,0,1,213,-60,-966,0,0,0,0,0,0,0,0,0,0,0,0,0,0
1769081552082,1769081552082,0,0,0,0,0,0,0,0,0,0,0,0,0,0,0,0,0,0,0,0,0,0,0,0,0,0,0,0,0,0,0,0,0,0,0,0,0,0,0,0,1,20148
1769081552088,1769081552088,0,0,0,0,0,0,0,0,0,0,0,0,0,0,0,0,0,0,0,0,0,0,0,0,0,0,0,0,0,0,0,0,0,0,0,0,1,51,169,77,0,0
1769081552102,1769081552102,0,0,0,0,0,0,0,0,0,0,0,0,0,0,0,0,0,0,0,0,0,0,0,0,0,0,0,0,0,0,0,0,0,0,0,0,0,0,0,0,1,20149
1769081552108,1769081552108,0,0,0,0,0,0,0,0,0,0,0,0,0,0,0,0,0,0,0,0,0,0,0,0,0,0,0,0,0,0,0,0,1,-28,1070,4047,0,0,0,0,0,0
1769081552110,1769081552110,0,0,0,0,0,1,71,50,1,97,99,1,344052,11911,18178,0,0,0,0,0,0,0,0,0,1,267,-76,-925,0,0,0,0,0,0,0,0,0,0,0,0,0,0
1769081552126,1769081552126,0,0,0,0,0,0,0,0,0,0,0,0,0,0,0,0,0,0,0,0,0,0,0,0,0,0,0,0,0,0,0,0,0,0,0,0,0,0,0,0,1,20150
1769081552127,1769081552127,0,0,0,0,0,0,0,0,0,0,0,0,0,0,0,0,0,0,0,0,0,0,0,0,0,0,0,0,0,0,0,0,0,0,0,0,1,82,122,87,0,0
1769081552140,1769081552140,0,0,0,0,0,0,0,0,0,0,0,0,0,0,0,0,0,0,0,0,0,0,0,0,0,0,0,0,0,0,0,0,0,0,0,0,0,0,0,0,1,20151
1769081552147,1769081552147,0,0,0,0,0,0,0,0,0,0,0,0,0,0,0,0,0,0,0,0,0,0,0,0,0,0,0,0,0,0,0,0,1,-31,1059,4014,0,0,0,0,0,0
1769081552148,1769081552148,0,0,0,0,0,1,71,50,1,97,99,1,344108,11909,18156,0,0,0,0,0,0,0,0,0,1,190,-89,-971,0,0,0,0,0,0,0,0,0,0,0,0,0,0
1769081552167,1769081552167,0,0,0,0,0,0,0,0,0,0,0,0,0,0,0,0,0,0,0,0,0,0,0,0,0,0,0,0,0,0,0,0,0,0,0,0,1,-1,76,99,0,0
1769081552169,1769081552169,0,0,0,0,0,0,0,0,0,0,0,0,0,0,0,0,0,0,0,0,0,0,0,0,0,0,0,0,0,0,0,0,0,0,0,0,0,0,0,0,1,20152
1769081552186,1769081552186,0,0,0,0,0,1,71,50,1,97,99,1,344117,11914,18158,0,0,0,0,0,0,0,0,0,1,246,-110,-933,0,0,0,0,0,0,0,0,0,0,0,0,0,0
1769081552187,1769081552187,0,0,0,0,0,0,0,0,0,0,0,0,0,0,0,0,0,0,0,0,0,0,0,0,0,0,0,0,0,0,0,0,1,9,1060,3987,0,0,0,0,0,0
1769081552192,1769081552192,0,0,0,0,0,0,0,0,0,0,0,0,0,0,0,0,0,0,0,0,0,0,0,0,0,0,0,0,0,0,0,0,0,0,0,0,0,0,0,0,1,20153
1769081552207,1769081552207,0,0,0,0,0,0,0,0,0,0,0,0,0,0,0,0,0,0,0,0,0,0,0,0,0,0,0,0,0,0,0,0,0,0,0,0,1,18,11,127,0,0
1769081552215,1769081552215,0,0,0,0,0,0,0,0,0,0,0,0,0,0,0,1,999,99901,0,0,0,0,0,0,0,0,0,0,0,0,0,0,0,0,0,0,0,0,0,0,1,20154
1769081552224,1769081552224,0,0,0,0,0,1,71,50,1,97,99,1,344076,11909,18152,0,0,0,0,0,0,0,0,0,1,200,-123,-964,0,0,0,0,0,0,0,0,0,0,0,0,0,0
1769081552227,1769081552227,0,0,0,0,0,0,0,0,0,0,0,0,0,0,0,0,0,0,0,0,0,0,0,0,0,0,0,0,0,0,0,0,1,33,1028,4035,0,0,0,0,0,0
1769081552233,1769081552233,0,0,0,0,0,0,0,0,0,0,0,0,0,0,0,0,0,0,0,0,0,0,0,0,0,0,0,0,0,0,0,0,0,0,0,0,0,0,0,0,1,20155
1769081552247,1769081552247,0,0,0,0,0,0,0,0,0,0,0,0,0,0,0,0,0,0,0,0,0,0,0,0,0,0,0,0,0,0,0,0,0,0,0,0,1,5,-36,130,0,0
1769081552251,1769081552251,0,0,0,0,0,0,0,0,0,0,0,0,0,0,0,0,0,0,0,0,0,0,0,0,0,0,0,0,0,0,0,0,0,0,0,0,0,0,0,0,1,20156
1769081552262,1769081552262,0,0,0,0,0,1,71,50,1,97,99,1,344048,11917,18162,0,0,0,0,0,0,0,0,0,1,299,-133,-941,0,0,0,0,0,0,0,0,0,0,0,0,0,0
1769081552267,1769081552267,0,0,0,0,0,0,0,0,0,0,0,0,0,0,0,0,0,0,0,0,0,0,0,0,0,0,0,0,0,0,0,0,1,54,1026,4076,0,0,0,0,0,0
1769081552275,1769081552275,0,0,0,0,0,0,0,0,0,0,0,0,0,0,0,0,0,0,0,0,0,0,0,0,0,0,0,0,0,0,0,0,0,0,0,0,0,0,0,0,1,20157
1769081552287,1769081552287,0,0,0,0,0,0,0,0,0,0,0,0,0,0,0,0,0,0,0,0,0,0,0,0,0,0,0,0,0,0,0,0,0,0,0,0,1,28,-61,107,0,0
1769081552300,1769081552300,0,0,0,0,0,1,71,50,1,97,99,1,343993,11914,18166,0,0,0,0,0,0,0,0,0,1,266,-139,-973,0,0,0,0,0,0,0,0,0,0,0,0,0,0
1769081552304,1769081552304,0,0,0,0,0,0,0,0,0,0,0,0,0,0,0,0,0,0,0,0,0,0,0,0,0,0,0,0,0,0,0,0,0,0,0,0,0,0,0,0,1,20158
1769081552307,1769081552307,0,0,0,0,0,0,0,0,0,0,0,0,0,0,0,0,0,0,0,0,0,0,0,0,0,0,0,0,0,0,0,0,1,47,1161,4050,0,0,0,0,0,0
1769081552319,1769081552319,0,0,0,0,0,0,0,0,0,0,0,0,0,0,0,0,0,0,0,0,0,0,0,0,0,0,0,0,0,0,0,0,0,0,0,0,0,0,0,0,1,20159
1769081552326,1769081552326,0,0,0,0,0,0,0,0,0,0,0,0,0,0,0,0,0,0,0,0,0,0,0,0,0,0,0,0,0,0,0,0,0,0,0,0,1,95,-72,91,0,0
1769081552336,1769081552336,0,0,0,0,0,0,0,0,0,0,0,0,0,0,0,0,0,0,0,0,0,0,0,0,0,0,0,0,0,0,0,0,0,0,0,0,0,0,0,0,1,20160
1769081552338,1769081552338,0,0,0,0,0,1,71,50,1,97,99,1,343947,11920,18171,0,0,0,0,0,0,0,0,0,1,247,-133,-934,0,0,0,0,0,0,0,0,0,0,0,0,0,0
1769081552346,1769081552346,0,0,0,0,0,0,0,0,0,0,0,0,0,0,0,0,0,0,0,0,0,0,0,0,0,0,0,0,0,0,0,0,1,69,1030,4074,0,0,0,0,0,0
1769081552358,1769081552358,0,0,0,0,0,0,0,0,0,0,0,0,0,0,0,0,0,0,0,0,0,0,0,0,0,0,0,0,0,0,0,0,0,0,0,0,0,0,0,0,1,20161
1769081552366,1769081552366,0,0,0,0,0,0,0,0,0,0,0,0,0,0,0,0,0,0,0,0,0,0,0,0,0,0,0,0,0,0,0,0,0,0,0,0,1,-70,-123,95,0,0
1769081552376,1769081552376,0,0,0,0,0,1,71,50,1,97,99,1,343889,11905,18168,0,0,0,0,0,0,0,0,0,1,254,-133,-924,0,0,0,0,0,0,0,0,0,0,0,0,0,0
1769081552381,1769081552381,0,0,0,0,0,0,0,0,0,0,0,0,0,0,0,0,0,0,0,0,0,0,0,0,0,0,0,0,0,0,0,0,0,0,0,0,0,0,0,0,1,20162
1769081552386,1769081552386,0,0,0,0,0,0,0,0,0,0,0,0,0,0,0,0,0,0,0,0,0,0,0,0,0,0,0,0,0,0,0,0,1,78,993,4078,0,0,0,0,0,0
1769081552395,1769081552395,0,0,0,0,0,0,0,0,0,0,0,0,0,0,0,0,0,0,0,0,0,0,0,0,0,0,0,0,0,0,0,0,0,0,0,0,0,0,0,0,1,20163
1769081552406,1769081552406,0,0,0,0,0,0,0,0,0,0,0,0,0,0,0,0,0,0,0,0,0,0,0,0,0,0,0,0,0,0,0,0,0,0,0,0,1,-28,-145,110,0,0
1769081552414,1769081552414,0,0,0,0,0,1,71,50,1,97,99,1,343841,11893,18161,0,0,0,0,0,0,0,0,0,1,233,-128,-934,0,0,0,0,0,0,0,0,0,0,0,0,0,0
1769081552425,1769081552425,0,0,0,0,0,0,0,0,0,0,0,0,0,0,0,0,0,0,0,0,0,0,0,0,0,0,0,0,0,0,0,0,0,0,0,0,0,0,0,0,1,20164
1769081552426,1769081552426,0,0,0,0,0,0,0,0,0,0,0,0,0,0,0,0,0,0,0,0,0,0,0,0,0,0,0,0,0,0,0,0,1,106,1119,4029,0,0,0,0,0,0
1769081552440,1769081552440,0,0,0,0,0,0,0,0,0,0,0,0,0,0,0,0,0,0,0,0,0,0,0,0,0,0,0,0,0,0,0,0,0,0,0,0,0,0,0,0,1,20165
1769081552446,1769081552446,0,0,0,0,0,0,0,0,0,0,0,0,0,0,0,0,0,0,0,0,0,0,0,0,0,0,0,0,0,0,0,0,0,0,0,0,1,99,-139,99,0,0
1769081552452,1769081552452,0,0,0,0,0,1,71,50,1,97,99,1,343816,11886,18153,0,0,0,0,0,0,0,0,0,1,260,-118,-903,0,0,0,0,0,0,0,0,0,0,0,0,0,0
1769081552462,1769081552462,0,0,0,0,0,0,0,0,0,0,0,0,0,0,0,0,0,0,0,0,0,0,0,0,0,0,0,0,0,0,0,0,0,0,0,0,0,0,0,0,1,20166
1769081552466,1769081552466,0,0,0,0,0,0,0,0,0,0,0,0,0,0,0,0,0,0,0,0,0,0,0,0,0,0,0,0,0,0,0,0,1,118,1040,3992,0,0,0,0,0,0
1769081552486,1769081552486,0,0,0,0,0,0,0,0,0,0,0,0,0,0,0,0,0,0,0,0,0,0,0,0,0,0,0,0,0,0,0,0,0,0,0,0,1,-78,-157,90,0,0
1769081552490,1769081552490,0,0,0,0,0,1,71,50,1,97,99,1,343788,11866,18143,0,0,0,0,0,0,0,0,0,1,291,-100,-896,0,0,0,0,0,0,0,0,0,0,0,0,0,0
1769081552492,1769081552492,0,0,0,0,0,0,0,0,0,0,0,0,0,0,0,0,0,0,0,0,0,0,0,0,0,0,0,0,0,0,0,0,0,0,0,0,0,0,0,0,1,20167
1769081552505,1769081552505,0,0,0,0,0,0,0,0,0,0,0,0,0,0,0,0,0,0,0,0,0,0,0,0,0,0,0,0,0,0,0,0,1,146,1009,3929,0,0,0,0,0,0
1769081552510,1769081552510,0,0,0,0,0,0,0,0,0,0,0,0,0,0,0,0,0,0,0,0,0,0,0,0,0,0,0,0,0,0,0,0,0,0,0,0,0,0,0,0,1,20168
1769081552525,1769081552525,0,0,0,0,0,0,0,0,0,0,0,0,0,0,0,0,0,0,0,0,0,0,0,0,0,0,0,0,0,0,0,0,0,0,0,0,1,-113,-183,95,0,0
1769081552528,1769081552528,0,0,0,0,0,1,71,50,1,97,99,1,343780,11852,18131,0,0,0,0,0,0,0,0,0,1,308,-103,-883,0,0,0,0,0,0,0,0,0,0,0,0,0,0
1769081552531,1769081552531,0,0,0,0,0,0,0,0,0,0,0,0,0,0,0,0,0,0,0,0,0,0,0,0,0,0,0,0,0,0,0,0,0,0,0,0,0,0,0,0,1,20169
1769081552545,1769081552545,0,0,0,0,0,0,0,0,0,0,0,0,0,0,0,0,0,0,0,0,0,0,0,0,0,0,0,0,0,0,0,0,1,196,1069,3932,0,0,0,0,0,0
1769081552551,1769081552551,0,0,0,0,0,0,0,0,0,0,0,0,0,0,0,0,0,0,0,0,0,0,0,0,0,0,0,0,0,0,0,0,0,0,0,0,0,0,0,0,1,20170
1769081552565,1769081552565,0,0,0,0,0,0,0,0,0,0,0,0,0,0,0,0,0,0,0,0,0,0,0,0,0,0,0,0,0,0,0,0,0,0,0,0,1,8,-185,96,0,0
1769081552566,1769081552566,0,0,0,0,0,1,71,50,1,97,99,1,343801,11839,18122,0,0,0,0,0,0,0,0,0,1,343,-97,-845,0,0,0,0,0,0,0,0,0,0,0,0,0,0
1769081552585,1769081552585,0,0,0,0,0,0,0,0,0,0,0,0,0,0,0,0,0,0,0,0,0,0,0,0,0,0,0,0,0,0,0,0,1,215,1045,3910,0,0,0,0,0,0
1769081552586,1769081552586,0,0,0,0,0,0,0,0,0,0,0,0,0,0,0,0,0,0,0,0,0,0,0,0,0,0,0,0,0,0,0,0,0,0,0,0,0,0,0,0,1,20171
1769081552590,1769081552590,0,0,0,0,0,0,0,0,0,0,0,0,0,0,0,0,0,0,0,0,0,0,0,0,0,0,0,0,0,0,0,0,0,0,0,0,0,0,0,0,1,20172
1769081552604,1769081552604,0,0,0,0,0,1,71,50,1,97,99,1,343820,11819,18108,0,0,0,0,0,0,0,0,0,1,339,-92,-853,0,0,0,0,0,0,0,0,0,0,0,0,0,0
1769081552605,1769081552605,0,0,0,0,0,0,0,0,0,0,0,0,0,0,0,0,0,0,0,0,0,0,0,0,0,0,0,0,0,0,0,0,0,0,0,0,1,54,-178,111,0,0
1769081552611,1769081552611,0,0,0,0,0,0,0,0,0,0,0,0,0,0,0,0,0,0,0,0,0,0,0,0,0,0,0,0,0,0,0,0,0,0,0,0,0,0,0,0,1,20173
1769081552625,1769081552625,0,0,0,0,0,0,0,0,0,0,0,0,0,0,0,0,0,0,0,0,0,0,0,0,0,0,0,0,0,0,0,0,1,291,1187,3871,0,0,0,0,0,0
1769081552634,1769081552634,0,0,0,0,0,0,0,0,0,0,0,0,0,0,0,0,0,0,0,0,0,0,0,0,0,0,0,0,0,0,0,0,0,0,0,0,0,0,0,0,1,20174
1769081552642,1769081552642,0,0,0,0,0,1,71,50,1,97,99,1,343865,11815,18102,0,0,0,0,0,0,0,0,0,1,298,-94,-884,0,0,0,0,0,0,0,0,0,0,0,0,0,0
1769081552645,1769081552645,0,0,0,0,0,0,0,0,0,0,0,0,0,0,0,0,0,0,0,0,0,0,0,0,0,0,0,0,0,0,0,0,0,0,0,0,1,83,-187,127,0,0
1769081552651,1769081552651,0,0,0,0,0,0,0,0,0,0,0,0,0,0,0,0,0,0,0,0,0,0,0,0,0,0,0,0,0,0,0,0,0,0,0,0,0,0,0,0,1,20175
1769081552665,1769081552665,0,0,0,0,0,0,0,0,0,0,0,0,0,0,0,0,0,0,0,0,0,0,0,0,0,0,0,0,0,0,0,0,1,333,878,3877,0,0,0,0,0,0
1769081552680,1769081552680,0,0,0,0,0,1,71,50,1,97,99,1,343940,11815,18104,0,0,0,0,0,0,0,0,0,1,358,-80,-868,0,0,0,0,0,0,0,0,0,0,0,0,0,0
1769081552685,1769081552685,0,0,0,0,0,0,0,0,0,0,0,0,0,0,0,0,0,0,0,0,0,0,0,0,0,0,0,0,0,0,0,0,0,0,0,0,1,-63,-177,151,0,0
1769081552704,1769081552704,0,0,0,0,0,0,0,0,0,0,0,0,0,0,0,0,0,0,0,0,0,0,0,0,0,0,0,0,0,0,0,0,1,409,1119,3858,0,0,0,0,0,0
1769081552718,1769081552718,0,0,0,0,0,1,71,50,1,97,99,1,344003,11817,18105,0,0,0,0,0,0,0,0,0,1,298,-89,-928,0,0,0,0,0,0,0,0,0,0,0,0,0,0
1769081552724,1769081552724,0,0,0,0,0,0,0,0,0,0,0,0,0,0,0,0,0,0,0,0,0,0,0,0,0,0,0,0,0,0,0,0,0,0,0,0,1,160,-127,145,0,0
1769081552744,1769081552744,0,0,0,0,0,0,0,0,0,0,0,0,0,0,0,0,0,0,0,0,0,0,0,0,0,0,0,0,0,0,0,0,1,472,961,3883,0,0,0,0,0,0
1769081552756,1769081552756,0,0,0,0,0,1,71,50,1,97,99,1,344117,11830,18118,0,0,0,0,0,0,0,0,0,1,330,-97,-935,0,0,0,0,0,0,0,0,0,0,0,0,0,0
1769081552764,1769081552764,0,0,0,0,0,0,0,0,0,0,0,0,0,0,0,0,0,0,0,0,0,0,0,0,0,0,0,0,0,0,0,0,0,0,0,0,1,150,-81,125,0,0
1769081552784,1769081552784,0,0,0,0,0,0,0,0,0,0,0,0,0,0,0,0,0,0,0,0,0,0,0,0,0,0,0,0,0,0,0,0,1,497,1346,3938,0,0,0,0,0,0
1769081552794,1769081552794,0,0,0,0,0,1,71,50,1,97,99,1,344227,11839,18125,0,0,0,0,0,0,0,0,0,1,319,-91,-944,0,0,0,0,0,0,0,0,0,0,0,0,0,0
1769081552804,1769081552804,0,0,0,0,0,0,0,0,0,0,0,0,0,0,0,0,0,0,0,0,0,0,0,0,0,0,0,0,0,0,0,0,0,0,0,0,1,276,-71,121,0,0
1769081552824,1769081552824,0,0,0,0,0,0,0,0,0,0,0,0,0,0,0,0,0,0,0,0,0,0,0,0,0,0,0,0,0,0,0,0,1,526,1169,3935,0,0,0,0,0,0
1769081552832,1769081552832,0,0,0,0,0,1,71,50,1,97,99,1,344352,11851,18136,0,0,0,0,0,0,0,0,0,1,324,-106,-931,0,0,0,0,0,0,0,0,0,0,0,0,0,0
1769081552844,1769081552844,0,0,0,0,0,0,0,0,0,0,0,0,0,0,0,0,0,0,0,0,0,0,0,0,0,0,0,0,0,0,0,0,0,0,0,0,1,115,-61,138,0,0
1769081552854,1769081552854,0,0,0,0,0,0,0,0,0,0,0,0,0,0,0,1,998,99899,0,0,0,0,0,0,0,0,0,0,0,0,0,0,0,0,0,0,0,0,0,0,0,0
1769081552864,1769081552864,0,0,0,0,0,0,0,0,0,0,0,0,0,0,0,0,0,0,0,0,0,0,0,0,0,0,0,0,0,0,0,0,1,508,1140,3813,0,0,0,0,0,0
1769081552870,1769081552870,0,0,0,0,0,1,71,50,1,97,99,1,344489,11860,18145,0,0,0,0,0,0,0,0,0,1,321,-92,-924,0,0,0,0,0,0,0,0,0,0,0,0,0,0
1769081552884,1769081552884,0,0,0,0,0,0,0,0,0,0,0,0,0,0,0,0,0,0,0,0,0,0,0,0,0,0,0,0,0,0,0,0,0,0,0,0,1,95,-44,153,0,0
1769081552903,1769081552903,0,0,0,0,0,0,0,0,0,0,0,0,0,0,0,0,0,0,0,0,0,0,0,0,0,0,0,0,0,0,0,0,1,490,1124,3767,0,0,0,0,0,0
1769081552908,1769081552908,0,0,0,0,0,1,71,50,1,97,99,1,344651,11869,18154,0,0,0,0,0,0,0,0,0,1,300,-87,-932,0,0,0,0,0,0,0,0,0,0,0,0,0,0
1769081552923,1769081552923,0,0,0,0,0,0,0,0,0,0,0,0,0,0,0,0,0,0,0,0,0,0,0,0,0,0,0,0,0,0,0,0,0,0,0,0,1,125,-29,125,0,0
1769081552943,1769081552943,0,0,0,0,0,0,0,0,0,0,0,0,0,0,0,0,0,0,0,0,0,0,0,0,0,0,0,0,0,0,0,0,1,483,1045,3769,0,0,0,0,0,0
1769081552946,1769081552946,0,0,0,0,0,1,71,50,1,97,99,1,344792,11876,18161,0,0,0,0,0,0,0,0,0,1,332,-96,-917,0,0,0,0,0,0,0,0,0,0,0,0,0,0
1769081552963,1769081552963,0,0,0,0,0,0,0,0,0,0,0,0,0,0,0,0,0,0,0,0,0,0,0,0,0,0,0,0,0,0,0,0,0,0,0,0,1,99,-3,81,0,0
1769081552983,1769081552983,0,0,0,0,0,0,0,0,0,0,0,0,0,0,0,0,0,0,0,0,0,0,0,0,0,0,0,0,0,0,0,0,1,433,1191,3701,0,0,0,0,0,0
1769081552984,1769081552984,0,0,0,0,0,1,71,50,1,97,99,1,344956,11883,18170,0,0,0,0,0,0,0,0,0,1,319,-87,-935,0,0,0,0,0,0,0,0,0,0,0,0,0,0
1769081553003,1769081553003,0,0,0,0,0,0,0,0,0,0,0,0,0,0,0,0,0,0,0,0,0,0,0,0,0,0,0,0,0,0,0,0,0,0,0,0,1,279,23,37,0,0
1769081553023,1769081553023,0,0,0,0,0,0,0,0,0,0,0,0,0,0,0,0,0,0,0,0,0,0,0,0,0,0,0,0,0,0,0,0,1,376,1322,3660,0,0,0,0,0,0
1769081553024,1769081553024,0,0,0,0,0,1,71,50,1,97,99,1,345115,11892,18174,0,0,0,0,0,0,0,1,3,1,306,-85,-935,0,0,0,0,0,0,0,0,0,0,0,0,0,0
1769081553043,1769081553043,0,0,0,0,0,0,0,0,0,0,0,0,0,0,0,0,0,0,0,0,0,0,0,0,0,0,0,0,0,0,0,0,0,0,0,0,1,227,-1,0,1,20176
1769081553047,1769081553047,0,0,0,0,0,0,0,0,0,0,0,0,0,0,0,0,0,0,1,30.49146270751953,1,26.732141494750977,0,0,0,0,0,0,0,0,0,0,0,0,0,0,0,0,0,0,0,0
1769081553049,1769081553049,1,-11,3832,300,58.400000000000006,0,0,0,0,0,0,0,0,0,0,0,0,0,0,0,0,0,0,0,0,0,0,0,0,0,0,0,0,0,0,0,0,0,0,0,0,0
1769081553063,1769081553063,0,0,0,0,0,0,0,0,0,0,0,0,0,0,0,0,0,0,0,0,0,0,0,0,0,0,0,0,0,0,0,0,1,388,1351,3570,0,0,0,0,0,0
1769081553064,1769081553064,0,0,0,0,0,1,71,50,1,97,99,1,345274,11902,18183,0,0,0,0,0,0,0,0,0,1,329,-85,-936,0,0,0,0,0,0,0,0,0,0,0,0,0,0
1769081553069,1769081553069,0,0,0,0,0,0,0,0,0,0,0,0,0,0,0,0,0,0,0,0,0,0,0,0,0,0,0,0,0,0,0,0,0,0,0,0,0,0,0,0,1,20177
1769081553082,1769081553082,0,0,0,0,0,0,0,0,0,0,0,0,0,0,0,0,0,0,0,0,0,0,0,0,0,0,0,0,0,0,0,0,0,0,0,0,1,143,-30,-3,0,0
1769081553102,1769081553102,0,0,0,0,0,0,0,0,0,0,0,0,0,0,0,0,0,0,0,0,0,0,0,0,0,0,0,0,0,0,0,0,1,365,1479,3533,0,0,0,0,0,0
1769081553104,1769081553104,0,0,0,0,0,1,71,50,1,97,99,1,345462,11919,18191,0,0,0,0,0,0,0,0,0,1,321,-99,-956,0,0,0,0,0,0,0,0,0,0,0,0,0,0
1769081553107,1769081553107,0,0,0,0,0,0,0,0,0,0,0,0,0,0,0,0,0,0,0,0,0,0,0,0,0,0,0,0,0,0,0,0,0,0,0,0,0,0,0,0,1,20178
1769081553110,1769081553110,0,0,0,0,0,0,0,0,0,0,0,0,0,0,0,0,0,0,0,0,0,0,0,0,0,0,0,0,0,0,0,0,0,0,0,0,0,0,0,0,1,20179
1769081553122,1769081553122,0,0,0,0,0,0,0,0,0,0,0,0,0,0,0,0,0,0,0,0,0,0,0,0,0,0,0,0,0,0,0,0,0,0,0,0,1,186,-9,-11,0,0
1769081553129,1769081553129,0,0,0,0,0,0,0,0,0,0,0,0,0,0,0,0,0,0,0,0,0,0,0,0,0,0,0,0,0,0,0,0,0,0,0,0,0,0,0,0,1,20180
1769081553142,1769081553142,0,0,0,0,0,0,0,0,0,0,0,0,0,0,0,0,0,0,0,0,0,0,0,0,0,0,0,0,0,0,0,0,1,369,1473,3456,0,0,0,0,0,0
1769081553144,1769081553144,0,0,0,0,0,1,71,50,1,97,99,1,345635,11932,18209,0,0,0,0,0,0,0,0,0,1,312,-109,-935,0,0,0,0,0,0,0,0,0,0,0,0,0,0
1769081553152,1769081553152,0,0,0,0,0,0,0,0,0,0,0,0,0,0,0,0,0,0,0,0,0,0,0,0,0,0,0,0,0,0,0,0,0,0,0,0,0,0,0,0,1,20181
1769081553162,1769081553162,0,0,0,0,0,0,0,0,0,0,0,0,0,0,0,0,0,0,0,0,0,0,0,0,0,0,0,0,0,0,0,0,0,0,0,0,1,19,24,-4,0,0
1769081553176,1769081553176,0,0,0,0,0,0,0,0,0,0,0,0,0,0,0,0,0,0,0,0,0,0,0,0,0,0,0,0,0,0,0,0,0,0,0,0,0,0,0,0,1,20182
1769081553182,1769081553182,0,0,0,0,0,0,0,0,0,0,0,0,0,0,0,0,0,0,0,0,0,0,0,0,0,0,0,0,0,0,0,0,1,336,1343,3601,0,0,0,0,0,0
1769081553184,1769081553184,0,0,0,0,0,1,71,50,1,97,99,1,345815,11937,18217,0,0,0,0,0,0,0,0,0,1,283,-92,-958,0,0,0,0,0,0,0,0,0,0,0,0,0,0
1769081553190,1769081553190,0,0,0,0,0,0,0,0,0,0,0,0,0,0,0,0,0,0,0,0,0,0,0,0,0,0,0,0,0,0,0,0,0,0,0,0,0,0,0,0,1,20183
1769081553202,1769081553202,0,0,0,0,0,0,0,0,0,0,0,0,0,0,0,0,0,0,0,0,0,0,0,0,0,0,0,0,0,0,0,0,0,0,0,0,1,86,78,25,0,0
1769081553212,1769081553212,0,0,0,0,0,0,0,0,0,0,0,0,0,0,0,0,0,0,0,0,0,0,0,0,0,0,0,0,0,0,0,0,0,0,0,0,0,0,0,0,1,20184
1769081553222,1769081553222,0,0,0,0,0,0,0,0,0,0,0,0,0,0,0,0,0,0,0,0,0,0,0,0,0,0,0,0,0,0,0,0,1,295,1582,3657,0,0,0,0,0,0
1769081553224,1769081553224,0,0,0,0,0,1,71,50,1,97,99,1,346004,11948,18231,0,0,0,0,0,0,0,0,0,1,303,-101,-947,0,0,0,0,0,0,0,0,0,0,0,0,0,0
1769081553242,1769081553242,0,0,0,0,0,0,0,0,0,0,0,0,0,0,0,0,0,0,0,0,0,0,0,0,0,0,0,0,0,0,0,0,0,0,0,0,1,162,81,0,0,0
1769081553248,1769081553248,0,0,0,0,0,0,0,0,0,0,0,0,0,0,0,0,0,0,0,0,0,0,0,0,0,0,0,0,0,0,0,0,0,0,0,0,0,0,0,0,1,20185
1769081553257,1769081553257,0,0,0,0,0,0,0,0,0,0,0,0,0,0,0,0,0,0,0,0,0,0,0,0,0,0,0,0,0,0,0,0,0,0,0,0,0,0,0,0,1,20186
1769081553262,1769081553262,0,0,0,0,0,0,0,0,0,0,0,0,0,0,0,0,0,0,0,0,0,0,0,0,0,0,0,0,0,0,0,0,1,335,1353,3734,0,0,0,0,0,0
1769081553264,1769081553264,0,0,0,0,0,1,71,50,1,97,99,1,346200,11958,18237,0,0,0,0,0,0,0,0,0,1,294,-97,-933,0,0,0,0,0,0,0,0,0,0,0,0,0,0
1769081553279,1769081553279,0,0,0,0,0,0,0,0,0,0,0,0,0,0,0,0,0,0,0,0,0,0,0,0,0,0,0,0,0,0,0,0,0,0,0,0,0,0,0,0,1,20187
1769081553281,1769081553281,0,0,0,0,0,0,0,0,0,0,0,0,0,0,0,0,0,0,0,0,0,0,0,0,0,0,0,0,0,0,0,0,0,0,0,0,1,-83,54,-1,0,0
1769081553301,1769081553301,0,0,0,0,0,0,0,0,0,0,0,0,0,0,0,0,0,0,0,0,0,0,0,0,0,0,0,0,0,0,0,0,1,349,1459,3838,0,0,0,0,1,20188
1769081553304,1769081553304,0,0,0,0,0,1,71,50,1,97,99,1,346388,11963,18247,0,0,0,0,0,0,0,0,0,1,296,-92,-939,0,0,0,0,0,0,0,0,0,0,0,0,0,0
1769081553321,1769081553321,0,0,0,0,0,0,0,0,0,0,0,0,0,0,0,0,0,0,0,0,0,0,0,0,0,0,0,0,0,0,0,0,0,0,0,0,1,42,39,-3,0,0
1769081553325,1769081553325,0,0,0,0,0,0,0,0,0,0,0,0,0,0,0,0,0,0,0,0,0,0,0,0,0,0,0,0,0,0,0,0,0,0,0,0,0,0,0,0,1,20189
1769081553341,1769081553341,0,0,0,0,0,0,0,0,0,0,0,0,0,0,0,0,0,0,0,0,0,0,0,0,0,0,0,0,0,0,0,0,1,348,1425,3825,0,0,0,0,0,0
1769081553344,1769081553344,0,0,0,0,0,1,71,50,1,97,99,1,346568,11970,18250,0,0,0,0,0,0,0,0,0,1,317,-90,-941,0,0,0,0,0,0,0,0,0,0,0,0,0,0
1769081553348,1769081553348,0,0,0,0,0,0,0,0,0,0,0,0,0,0,0,0,0,0,0,0,0,0,0,0,0,0,0,0,0,0,0,0,0,0,0,0,0,0,0,0,1,20190
1769081553361,1769081553361,0,0,0,0,0,0,0,0,0,0,0,0,0,0,0,0,0,0,0,0,0,0,0,0,0,0,0,0,0,0,0,0,0,0,0,0,1,-1,14,-15,0,0
1769081553362,1769081553362,0,0,0,0,0,0,0,0,0,0,0,0,0,0,0,0,0,0,0,0,0,0,0,0,0,0,0,0,0,0,0,0,0,0,0,0,0,0,0,0,1,20191
1769081553381,1769081553381,0,0,0,0,0,0,0,0,0,0,0,0,0,0,0,0,0,0,0,0,0,0,0,0,0,0,0,0,0,0,0,0,1,404,1430,3805,0,0,0,0,0,0
1769081553384,1769081553384,0,0,0,0,0,1,71,50,1,97,99,1,346731,11982,18253,0,0,0,0,0,0,0,0,0,1,284,-86,-948,0,0,0,0,0,0,0,0,0,0,0,0,1,20192
1769081553401,1769081553401,0,0,0,0,0,0,0,0,0,0,0,0,0,0,0,0,0,0,0,0,0,0,0,0,0,0,0,0,0,0,0,0,0,0,0,0,1,-17,-8,-11,0,0
1769081553407,1769081553407,0,0,0,0,0,0,0,0,0,0,0,0,0,0,0,0,0,0,0,0,0,0,0,0,0,0,0,0,0,0,0,0,0,0,0,0,0,0,0,0,1,20193
1769081553421,1769081553421,0,0,0,0,0,0,0,0,0,0,0,0,0,0,0,0,0,0,0,0,0,0,0,0,0,0,0,0,0,0,0,0,1,371,1435,3795,0,0,0,0,0,0
1769081553424,1769081553424,0,0,0,0,0,1,71,50,1,97,99,1,346878,11992,18264,0,0,0,0,0,0,0,0,0,1,312,-76,-943,0,0,0,0,0,0,0,0,0,0,0,0,0,0
1769081553432,1769081553432,0,0,0,0,0,0,0,0,0,0,0,0,0,0,0,0,0,0,0,0,0,0,0,0,0,0,0,0,0,0,0,0,0,0,0,0,0,0,0,0,1,20194
1769081553441,1769081553441,0,0,0,0,0,0,0,0,0,0,0,0,0,0,0,0,0,0,0,0,0,0,0,0,0,0,0,0,0,0,0,0,0,0,0,0,1,16,10,-9,0,0
1769081553445,1769081553445,0,0,0,0,0,0,0,0,0,0,0,0,0,0,0,0,0,0,0,0,0,0,0,0,0,0,0,0,0,0,0,0,0,0,0,0,0,0,0,0,1,20195
1769081553460,1769081553460,0,0,0,0,0,0,0,0,0,0,0,0,0,0,0,0,0,0,0,0,0,0,0,0,0,0,0,0,0,0,0,0,1,341,1359,3779,0,0,0,0,0,0
1769081553464,1769081553464,0,0,0,0,0,1,71,50,1,97,99,1,347021,12002,18271,0,0,0,0,0,0,0,0,0,1,285,-75,-952,0,0,0,0,0,0,0,0,0,0,0,0,0,0
1769081553475,1769081553475,0,0,0,0,0,0,0,0,0,0,0,0,0,0,0,0,0,0,0,0,0,0,0,0,0,0,0,0,0,0,0,0,0,0,0,0,0,0,0,0,1,20196
1769081553480,1769081553480,0,0,0,0,0,0,0,0,0,0,0,0,0,0,0,0,0,0,0,0,0,0,0,0,0,0,0,0,0,0,0,0,0,0,0,0,1,-61,15,-9,0,0
1769081553493,1769081553493,0,0,0,0,0,0,0,0,0,0,0,0,0,0,0,0,0,0,0,0,0,0,0,0,0,0,0,0,0,0,0,0,0,0,0,0,0,0,0,0,1,20197
1769081553494,1769081553494,0,0,0,0,0,0,0,0,0,0,0,0,0,0,0,1,998,99897,0,0,0,0,0,0,0,0,0,0,0,0,0,0,0,0,0,0,0,0,0,0,0,0
1769081553500,1769081553500,0,0,0,0,0,0,0,0,0,0,0,0,0,0,0,0,0,0,0,0,0,0,0,0,0,0,0,0,0,0,0,0,1,370,1449,3778,0,0,0,0,0,0
1769081553504,1769081553504,0,0,0,0,0,1,71,50,1,97,99,1,347156,12010,18279,0,0,0,0,0,0,0,0,0,1,312,-83,-940,0,0,0,0,0,0,0,0,0,0,0,0,0,0
1769081553512,1769081553512,0,0,0,0,0,0,0,0,0,0,0,0,0,0,0,0,0,0,0,0,0,0,0,0,0,0,0,0,0,0,0,0,0,0,0,0,0,0,0,0,1,20198
1769081553520,1769081553520,0,0,0,0,0,0,0,0,0,0,0,0,0,0,0,0,0,0,0,0,0,0,0,0,0,0,0,0,0,0,0,0,0,0,0,0,1,-25,11,-18,0,0
1769081553534,1769081553534,0,0,0,0,0,0,0,0,0,0,0,0,0,0,0,0,0,0,0,0,0,0,0,0,0,0,0,0,0,0,0,0,0,0,0,0,0,0,0,0,1,20199
1769081553540,1769081553540,0,0,0,0,0,0,0,0,0,0,0,0,0,0,0,0,0,0,0,0,0,0,0,0,0,0,0,0,0,0,0,0,1,340,1426,3820,0,0,0,0,0,0
1769081553544,1769081553544,0,0,0,0,0,1,71,50,1,97,99,1,347280,12019,18282,0,0,0,0,0,0,0,0,0,1,281,-84,-955,0,0,0,0,0,0,0,0,0,0,0,0,0,0
1769081553559,1769081553559,0,0,0,0,0,0,0,0,0,0,0,0,0,0,0,0,0,0,0,0,0,0,0,0,0,0,0,0,0,0,0,0,0,0,0,0,0,0,0,0,1,20200
1769081553560,1769081553560,0,0,0,0,0,0,0,0,0,0,0,0,0,0,0,0,0,0,0,0,0,0,0,0,0,0,0,0,0,0,0,0,0,0,0,0,1,-51,33,-21,0,0
1769081553571,1769081553571,0,0,0,0,0,0,0,0,0,0,0,0,0,0,0,0,0,0,0,0,0,0,0,0,0,0,0,0,0,0,0,0,0,0,0,0,0,0,0,0,1,20201
1769081553580,1769081553580,0,0,0,0,0,0,0,0,0,0,0,0,0,0,0,0,0,0,0,0,0,0,0,0,0,0,0,0,0,0,0,0,1,338,1378,3826,0,0,0,0,0,0
1769081553584,1769081553584,0,0,0,0,0,1,71,50,1,97,99,1,347431,12029,18294,0,0,0,0,0,0,0,0,0,1,278,-88,-948,0,0,0,0,0,0,0,0,0,0,0,0,0,0
1769081553594,1769081553594,0,0,0,0,0,0,0,0,0,0,0,0,0,0,0,0,0,0,0,0,0,0,0,0,0,0,0,0,0,0,0,0,0,0,0,0,0,0,0,0,1,20202
1769081553600,1769081553600,0,0,0,0,0,0,0,0,0,0,0,0,0,0,0,0,0,0,0,0,0,0,0,0,0,0,0,0,0,0,0,0,0,0,0,0,1,-51,18,-14,0,0
1769081553617,1769081553617,0,0,0,0,0,0,0,0,0,0,0,0,0,0,0,0,0,0,0,0,0,0,0,0,0,0,0,0,0,0,0,0,0,0,0,0,0,0,0,0,1,20203
1769081553620,1769081553620,0,0,0,0,0,0,0,0,0,0,0,0,0,0,0,0,0,0,0,0,0,0,0,0,0,0,0,0,0,0,0,0,1,327,1446,3865,0,0,0,0,0,0
1769081553624,1769081553624,0,0,0,0,0,1,71,50,1,97,99,1,347567,12041,18304,0,0,0,0,0,0,0,0,0,1,280,-70,-961,0,0,0,0,0,0,0,0,0,0,0,0,0,0
1769081553640,1769081553640,0,0,0,0,0,0,0,0,0,0,0,0,0,0,0,0,0,0,0,0,0,0,0,0,0,0,0,0,0,0,0,0,0,0,0,0,1,15,5,2,1,20204
1769081553659,1769081553659,0,0,0,0,0,0,0,0,0,0,0,0,0,0,0,0,0,0,0,0,0,0,0,0,0,0,0,0,0,0,0,0,1,370,1414,3886,0,0,0,0,0,0
1769081553664,1769081553664,0,0,0,0,0,1,71,50,1,97,99,1,347714,12047,18312,0,0,0,0,0,0,0,0,0,1,298,-77,-952,0,0,0,0,0,0,0,0,0,0,0,0,0,0
1769081553679,1769081553679,0,0,0,0,0,0,0,0,0,0,0,0,0,0,0,0,0,0,0,0,0,0,0,0,0,0,0,0,0,0,0,0,0,0,0,0,1,-44,20,-3,0,0
1769081553699,1769081553699,0,0,0,0,0,0,0,0,0,0,0,0,0,0,0,0,0,0,0,0,0,0,0,0,0,0,0,0,0,0,0,0,1,378,1375,3844,0,0,0,0,0,0
1769081553704,1769081553704,0,0,0,0,0,1,71,50,1,97,99,1,347856,12059,18325,0,0,0,0,0,0,0,0,0,1,275,-75,-969,0,0,0,0,0,0,0,0,0,0,0,0,0,0
1769081553719,1769081553719,0,0,0,0,0,0,0,0,0,0,0,0,0,0,0,0,0,0,0,0,0,0,0,0,0,0,0,0,0,0,0,0,0,0,0,0,1,-41,16,16,0,0
1769081553739,1769081553739,0,0,0,0,0,0,0,0,0,0,0,0,0,0,0,0,0,0,0,0,0,0,0,0,0,0,0,0,0,0,0,0,1,343,1306,3876,0,0,0,0,0,0
1769081553744,1769081553744,0,0,0,0,0,1,71,50,1,97,99,1,348002,12076,18335,0,0,0,0,0,0,0,0,0,1,295,-73,-966,0,0,0,0,0,0,0,0,0,0,0,0,0,0
1769081553759,1769081553759,0,0,0,0,0,0,0,0,0,0,0,0,0,0,0,0,0,0,0,0,0,0,0,0,0,0,0,0,0,0,0,0,0,0,0,0,1,-40,17,16,0,0
1769081553779,1769081553779,0,0,0,0,0,0,0,0,0,0,0,0,0,0,0,0,0,0,0,0,0,0,0,0,0,0,0,0,0,0,0,0,1,373,1333,3875,0,0,0,0,0,0
1769081553784,1769081553784,0,0,0,0,0,1,71,50,1,97,99,1,348132,12098,18348,0,0,0,0,0,0,0,0,0,1,281,-78,-961,0,0,0,0,0,0,0,0,0,0,0,0,0,0
1769081553799,1769081553799,0,0,0,0,0,0,0,0,0,0,0,0,0,0,0,0,0,0,0,0,0,0,0,0,0,0,0,0,0,0,0,0,0,0,0,0,1,-31,13,-4,0,0
1769081553819,1769081553819,0,0,0,0,0,0,0,0,0,0,0,0,0,0,0,0,0,0,0,0,0,0,0,0,0,0,0,0,0,0,0,0,1,364,1341,3823,0,0,0,0,0,0
1769081553824,1769081553824,0,0,0,0,0,1,71,50,1,97,99,1,348278,12098,18358,0,0,0,0,0,0,0,0,0,1,287,-74,-945,0,0,0,0,0,0,0,0,0,0,0,0,0,0
1769081553838,1769081553838,0,0,0,0,0,0,0,0,0,0,0,0,0,0,0,0,0,0,0,0,0,0,0,0,0,0,0,0,0,0,0,0,0,0,0,0,1,-20,12,-18,0,0
1769081553858,1769081553858,0,0,0,0,0,0,0,0,0,0,0,0,0,0,0,0,0,0,0,0,0,0,0,0,0,0,0,0,0,0,0,0,1,345,1327,3842,0,0,0,0,0,0
1769081553864,1769081553864,0,0,0,0,0,1,71,50,1,97,99,1,348443,12101,18363,0,0,0,0,0,0,0,0,0,1,295,-75,-943,0,0,0,0,0,0,0,0,0,0,0,0,0,0
1769081553878,1769081553878,0,0,0,0,0,0,0,0,0,0,0,0,0,0,0,0,0,0,0,0,0,0,0,0,0,0,0,0,0,0,0,0,0,0,0,0,1,-33,10,-18,0,0
1769081553898,1769081553898,0,0,0,0,0,0,0,0,0,0,0,0,0,0,0,0,0,0,0,0,0,0,0,0,0,0,0,0,0,0,0,0,1,330,1410,3835,0,0,0,0,0,0
1769081553904,1769081553904,0,0,0,0,0,1,71,50,1,97,99,1,348596,12110,18370,0,0,0,0,0,0,0,0,0,1,291,-73,-943,0,0,0,0,0,0,0,0,0,0,0,0,0,0
1769081553918,1769081553918,0,0,0,0,0,0,0,0,0,0,0,0,0,0,0,0,0,0,0,0,0,0,0,0,0,0,0,0,0,0,0,0,0,0,0,0,1,-34,21,-23,0,0
1769081553938,1769081553938,0,0,0,0,0,0,0,0,0,0,0,0,0,0,0,0,0,0,0,0,0,0,0,0,0,0,0,0,0,0,0,0,1,332,1289,3842,0,0,0,0,0,0
1769081553944,1769081553944,0,0,0,0,0,1,71,50,1,97,99,1,348740,12118,18378,0,0,0,0,0,0,0,0,0,1,303,-73,-938,0,0,0,0,0,0,0,0,0,0,0,0,0,0
1769081553958,1769081553958,0,0,0,0,0,0,0,0,0,0,0,0,0,0,0,0,0,0,0,0,0,0,0,0,0,0,0,0,0,0,0,0,0,0,0,0,1,-62,35,-10,0,0
1769081553978,1769081553978,0,0,0,0,0,0,0,0,0,0,0,0,0,0,0,0,0,0,0,0,0,0,0,0,0,0,0,0,0,0,0,0,1,303,1373,3872,0,0,0,0,0,0
1769081553984,1769081553984,0,0,0,0,0,1,71,50,1,97,99,1,348907,12123,18383,0,0,0,0,0,0,0,0,0,1,266,-77,-938,0,0,0,0,0,0,0,0,0,0,0,0,0,0
1769081553998,1769081553998,0,0,0,0,0,0,0,0,0,0,0,0,0,0,0,0,0,0,0,0,0,0,0,0,0,0,0,0,0,0,0,0,0,0,0,0,1,13,52,3,0,0
1769081554018,1769081554018,0,0,0,0,0,0,0,0,0,0,0,0,0,0,0,0,0,0,0,0,0,0,0,0,0,0,0,0,0,0,0,0,1,296,1294,3872,0,0,0,0,0,0
1769081554024,1769081554024,0,0,0,0,0,1,71,50,1,97,99,1,349030,12126,18390,0,0,0,0,0,0,0,1,3,1,299,-88,-931,0,0,0,0,0,0,0,0,0,0,0,0,0,0
1769081554037,1769081554037,0,0,0,0,0,0,0,0,0,0,0,0,0,0,0,0,0,0,0,0,0,0,0,0,0,0,0,0,0,0,0,0,0,0,0,0,1,-59,54,3,0,0
1769081554046,1769081554046,0,0,0,0,0,0,0,0,0,0,0,0,0,0,0,0,0,0,1,30.467023849487305,1,26.994531631469727,0,0,0,0,0,0,0,0,0,0,0,0,0,0,0,0,0,0,0,0
1769081554048,1769081554048,1,-11,3832,300,58.400000000000006,0,0,0,0,0,0,0,0,0,0,0,0,0,0,0,0,0,0,0,0,0,0,0,0,0,0,0,0,0,0,0,0,0,0,0,0,0
1769081554052,1769081554052,0,0,0,0,0,0,0,0,0,0,0,0,0,0,0,0,0,0,0,0,0,0,0,0,0,0,0,0,0,0,0,0,0,0,0,0,0,0,0,0,1,20205
1769081554057,1769081554057,0,0,0,0,0,0,0,0,0,0,0,0,0,0,0,0,0,0,0,0,0,0,0,0,0,0,0,0,0,0,0,0,1,312,1364,3877,0,0,0,0,0,0
1769081554064,1769081554064,0,0,0,0,0,1,71,50,1,97,99,1,349208,12140,18389,0,0,0,0,0,0,0,0,0,1,284,-72,-939,0,0,0,0,0,0,0,0,0,0,0,0,0,0
1769081554074,1769081554074,0,0,0,0,0,0,0,0,0,0,0,0,0,0,0,0,0,0,0,0,0,0,0,0,0,0,0,0,0,0,0,0,0,0,0,0,0,0,0,0,1,20206
1769081554077,1769081554077,0,0,0,0,0,0,0,0,0,0,0,0,0,0,0,0,0,0,0,0,0,0,0,0,0,0,0,0,0,0,0,0,0,0,0,0,1,-33,36,1,0,0
1769081554097,1769081554097,0,0,0,0,0,0,0,0,0,0,0,0,0,0,0,0,0,0,0,0,0,0,0,0,0,0,0,0,0,0,0,0,1,311,1288,3873,0,0,0,0,0,0
1769081554098,1769081554098,0,0,0,0,0,0,0,0,0,0,0,0,0,0,0,0,0,0,0,0,0,0,0,0,0,0,0,0,0,0,0,0,0,0,0,0,0,0,0,0,1,20207
1769081554104,1769081554104,0,0,0,0,0,1,71,50,1,97,99,1,349368,12144,18405,0,0,0,0,0,0,0,0,0,1,290,-69,-930,0,0,0,0,0,0,0,0,0,0,0,0,0,0
1769081554117,1769081554117,0,0,0,0,0,0,0,0,0,0,0,0,0,0,0,0,0,0,0,0,0,0,0,0,0,0,0,0,0,0,0,0,0,0,0,0,1,-40,25,8,0,0
1769081554118,1769081554118,0,0,0,0,0,0,0,0,0,0,0,0,0,0,0,0,0,0,0,0,0,0,0,0,0,0,0,0,0,0,0,0,0,0,0,0,0,0,0,0,1,20208
1769081554134,1769081554134,0,0,0,0,0,0,0,0,0,0,0,0,0,0,0,1,998,99897,0,0,0,0,0,0,0,0,0,0,0,0,0,0,0,0,0,0,0,0,0,0,0,0
1769081554136,1769081554136,0,0,0,0,0,0,0,0,0,0,0,0,0,0,0,0,0,0,0,0,0,0,0,0,0,0,0,0,0,0,0,0,0,0,0,0,0,0,0,0,1,20209
1769081554137,1769081554137,0,0,0,0,0,0,0,0,0,0,0,0,0,0,0,0,0,0,0,0,0,0,0,0,0,0,0,0,0,0,0,0,1,335,1279,3894,0,0,0,0,0,0
1769081554144,1769081554144,0,0,0,0,0,1,71,50,1,97,99,1,349524,12149,18411,0,0,0,0,0,0,0,0,0,1,298,-92,-907,0,0,0,0,0,0,0,0,0,0,0,0,0,0
1769081554157,1769081554157,0,0,0,0,0,0,0,0,0,0,0,0,0,0,0,0,0,0,0,0,0,0,0,0,0,0,0,0,0,0,0,0,0,0,0,0,1,-50,26,5,0,0
1769081554158,1769081554158,0,0,0,0,0,0,0,0,0,0,0,0,0,0,0,0,0,0,0,0,0,0,0,0,0,0,0,0,0,0,0,0,0,0,0,0,0,0,0,0,1,20210
1769081554177,1769081554177,0,0,0,0,0,0,0,0,0,0,0,0,0,0,0,0,0,0,0,0,0,0,0,0,0,0,0,0,0,0,0,0,1,288,1267,3915,0,0,0,0,0,0
1769081554179,1769081554179,0,0,0,0,0,0,0,0,0,0,0,0,0,0,0,0,0,0,0,0,0,0,0,0,0,0,0,0,0,0,0,0,0,0,0,0,0,0,0,0,1,20211
1769081554184,1769081554184,0,0,0,0,0,1,71,50,1,97,99,1,349680,12154,18415,0,0,0,0,0,0,0,0,0,1,288,-102,-875,0,0,0,0,0,0,0,0,0,0,0,0,0,0
1769081554197,1769081554197,0,0,0,0,0,0,0,0,0,0,0,0,0,0,0,0,0,0,0,0,0,0,0,0,0,0,0,0,0,0,0,0,0,0,0,0,1,-17,45,0,0,0
1769081554202,1769081554202,0,0,0,0,0,0,0,0,0,0,0,0,0,0,0,0,0,0,0,0,0,0,0,0,0,0,0,0,0,0,0,0,0,0,0,0,0,0,0,0,1,20212
1769081554216,1769081554216,0,0,0,0,0,0,0,0,0,0,0,0,0,0,0,0,0,0,0,0,0,0,0,0,0,0,0,0,0,0,0,0,1,285,1325,3907,0,0,0,0,0,0
1769081554224,1769081554224,0,0,0,0,0,1,71,50,1,97,99,1,349838,12164,18410,0,0,0,0,0,0,0,0,0,1,210,-100,-846,0,0,0,0,0,0,0,0,0,0,0,0,0,0
